success,trial_type,trial_index,time_elapsed,internal_node_id,ID,StartTime,EndTime,rt,stimulus,response,task,question_order,stim,answer,Score
1,fullscreen,0,2711,0.0-0.0,1039845,2023/10/18 13:59,2023/10/18 14:02,,,,,,,,0
,html-keyboard-response,1,10450,0.0-1.0,1039845,2023/10/18 13:59,2023/10/18 14:02,7735,<p style='text-algin:left'>これから、20個の単語についてその意味をおききします。</p><p style='text-algin:left'>語の意味を表すものとして、<u>最も適切なもの</u>をひとつ選択してください。</p><p><br><br></br><p style='text-algin:left'>準備ができたらスペーキーを押して、課題をはじめてください。</p>, ,vocab_instruction,,,,0
,survey-multi-choice,2,17846,0.0-2.0-0.0,1039845,2023/10/18 13:59,2023/10/18 14:02,7395,,Array,vocab_task,Array,,,0
,survey-multi-choice,3,21510,0.0-2.0-1.0,1039845,2023/10/18 13:59,2023/10/18 14:02,3661,,Array,vocab_task,Array,,,2
,survey-multi-choice,4,23958,0.0-2.0-2.0,1039845,2023/10/18 13:59,2023/10/18 14:02,2445,,Array,vocab_task,Array,,,2
,survey-multi-choice,5,30990,0.0-2.0-3.0,1039845,2023/10/18 13:59,2023/10/18 14:02,7029,,Array,vocab_task,Array,,,2
,survey-multi-choice,6,36742,0.0-2.0-4.0,1039845,2023/10/18 13:59,2023/10/18 14:02,5748,,Array,vocab_task,Array,,,2
,survey-multi-choice,7,40190,0.0-2.0-5.0,1039845,2023/10/18 13:59,2023/10/18 14:02,3445,,Array,vocab_task,Array,,,2
,survey-multi-choice,8,51638,0.0-2.0-6.0,1039845,2023/10/18 13:59,2023/10/18 14:02,11445,,Array,vocab_task,Array,,,1
,survey-multi-choice,9,54846,0.0-2.0-7.0,1039845,2023/10/18 13:59,2023/10/18 14:02,3205,,Array,vocab_task,Array,,,0
,survey-multi-choice,10,63134,0.0-2.0-8.0,1039845,2023/10/18 13:59,2023/10/18 14:02,8285,,Array,vocab_task,Array,,,0
,survey-multi-choice,11,70022,0.0-2.0-9.0,1039845,2023/10/18 13:59,2023/10/18 14:02,6885,,Array,vocab_task,Array,,,2
,survey-multi-choice,12,75022,0.0-2.0-10.0,1039845,2023/10/18 13:59,2023/10/18 14:02,4997,,Array,vocab_task,Array,,,1
,survey-multi-choice,13,77198,0.0-2.0-11.0,1039845,2023/10/18 13:59,2023/10/18 14:02,2173,,Array,vocab_task,Array,,,0
,survey-multi-choice,14,82606,0.0-2.0-12.0,1039845,2023/10/18 13:59,2023/10/18 14:02,5405,,Array,vocab_task,Array,,,2
,survey-multi-choice,15,93990,0.0-2.0-13.0,1039845,2023/10/18 13:59,2023/10/18 14:02,11381,,Array,vocab_task,Array,,,1
,survey-multi-choice,16,98526,0.0-2.0-14.0,1039845,2023/10/18 13:59,2023/10/18 14:02,4533,,Array,vocab_task,Array,,,2
,survey-multi-choice,17,116462,0.0-2.0-15.0,1039845,2023/10/18 13:59,2023/10/18 14:02,17933,,Array,vocab_task,Array,,,0
,survey-multi-choice,18,120726,0.0-2.0-16.0,1039845,2023/10/18 13:59,2023/10/18 14:02,4262,,Array,vocab_task,Array,,,1
,survey-multi-choice,19,127070,0.0-2.0-17.0,1039845,2023/10/18 13:59,2023/10/18 14:02,6341,,Array,vocab_task,Array,,,0
,survey-multi-choice,20,130934,0.0-2.0-18.0,1039845,2023/10/18 13:59,2023/10/18 14:02,3861,,Array,vocab_task,Array,,,2
,survey-multi-choice,21,135950,0.0-2.0-19.0,1039845,2023/10/18 13:59,2023/10/18 14:02,5013,,Array,vocab_task,Array,,,0
,html-keyboard-response,22,137588,0.0-3.0,1039845,2023/10/18 13:59,2023/10/18 14:02,1634,<p style='text-algin:left'>これで実験は終了です。お疲れ様でした。</p><p style='text-algin:left'>スペースキーを押したのち、画面を閉じてください。</p>, ,vocab_debrief,,,,0
1,fullscreen,0,2607,0.0-0.0,367640,2023/10/18 14:05,2023/10/18 14:07,,,,,,,,0
,html-keyboard-response,1,8535,0.0-1.0,367640,2023/10/18 14:05,2023/10/18 14:07,5924,<p style='text-algin:left'>これから、20個の単語についてその意味をおききします。</p><p style='text-algin:left'>語の意味を表すものとして、<u>最も適切なもの</u>をひとつ選択してください。</p><p><br><br></br><p style='text-algin:left'>準備ができたらスペーキーを押して、課題をはじめてください。</p>, ,vocab_instruction,,,,0
,survey-multi-choice,2,13653,0.0-2.0-0.0,367640,2023/10/18 14:05,2023/10/18 14:07,5114,,Array,vocab_task,Array,,,2
,survey-multi-choice,3,21213,0.0-2.0-1.0,367640,2023/10/18 14:05,2023/10/18 14:07,7558,,Array,vocab_task,Array,,,2
,survey-multi-choice,4,24245,0.0-2.0-2.0,367640,2023/10/18 14:05,2023/10/18 14:07,3030,,Array,vocab_task,Array,,,2
,survey-multi-choice,5,30005,0.0-2.0-3.0,367640,2023/10/18 14:05,2023/10/18 14:07,5758,,Array,vocab_task,Array,,,2
,survey-multi-choice,6,33013,0.0-2.0-4.0,367640,2023/10/18 14:05,2023/10/18 14:07,3006,,Array,vocab_task,Array,,,2
,survey-multi-choice,7,38725,0.0-2.0-5.0,367640,2023/10/18 14:05,2023/10/18 14:07,5710,,Array,vocab_task,Array,,,2
,survey-multi-choice,8,47757,0.0-2.0-6.0,367640,2023/10/18 14:05,2023/10/18 14:07,9030,,Array,vocab_task,Array,,,1
,survey-multi-choice,9,55060,0.0-2.0-7.0,367640,2023/10/18 14:05,2023/10/18 14:07,7302,,Array,vocab_task,Array,,,2
,survey-multi-choice,10,67941,0.0-2.0-8.0,367640,2023/10/18 14:05,2023/10/18 14:07,12878,,Array,vocab_task,Array,,,0
,survey-multi-choice,11,74421,0.0-2.0-9.0,367640,2023/10/18 14:05,2023/10/18 14:07,6478,,Array,vocab_task,Array,,,2
,survey-multi-choice,12,81221,0.0-2.0-10.0,367640,2023/10/18 14:05,2023/10/18 14:07,6798,,Array,vocab_task,Array,,,2
,survey-multi-choice,13,84125,0.0-2.0-11.0,367640,2023/10/18 14:05,2023/10/18 14:07,2902,,Array,vocab_task,Array,,,2
,survey-multi-choice,14,88013,0.0-2.0-12.0,367640,2023/10/18 14:05,2023/10/18 14:07,3886,,Array,vocab_task,Array,,,2
,survey-multi-choice,15,106885,0.0-2.0-13.0,367640,2023/10/18 14:05,2023/10/18 14:07,18870,,Array,vocab_task,Array,,,1
,survey-multi-choice,16,112557,0.0-2.0-14.0,367640,2023/10/18 14:05,2023/10/18 14:07,5670,,Array,vocab_task,Array,,,2
,survey-multi-choice,17,117045,0.0-2.0-15.0,367640,2023/10/18 14:05,2023/10/18 14:07,4486,,Array,vocab_task,Array,,,2
,survey-multi-choice,18,124901,0.0-2.0-16.0,367640,2023/10/18 14:05,2023/10/18 14:07,7854,,Array,vocab_task,Array,,,2
,survey-multi-choice,19,129210,0.0-2.0-17.0,367640,2023/10/18 14:05,2023/10/18 14:07,4307,,Array,vocab_task,Array,,,0
,survey-multi-choice,20,136469,0.0-2.0-18.0,367640,2023/10/18 14:05,2023/10/18 14:07,7257,,Array,vocab_task,Array,,,0
,survey-multi-choice,21,143845,0.0-2.0-19.0,367640,2023/10/18 14:05,2023/10/18 14:07,7374,,Array,vocab_task,Array,,,2
,html-keyboard-response,22,145812,0.0-3.0,367640,2023/10/18 14:05,2023/10/18 14:07,1964,<p style='text-algin:left'>これで実験は終了です。お疲れ様でした。</p><p style='text-algin:left'>スペースキーを押したのち、画面を閉じてください。</p>, ,vocab_debrief,,,,0
1,fullscreen,0,2576,0.0-0.0,4868810,2023/10/18 14:07,2023/10/18 14:10,,,,,,,,0
,html-keyboard-response,1,7545,0.0-1.0,4868810,2023/10/18 14:07,2023/10/18 14:10,4968,<p style='text-algin:left'>これから、20個の単語についてその意味をおききします。</p><p style='text-algin:left'>語の意味を表すものとして、<u>最も適切なもの</u>をひとつ選択してください。</p><p><br><br></br><p style='text-algin:left'>準備ができたらスペーキーを押して、課題をはじめてください。</p>, ,vocab_instruction,,,,0
,survey-multi-choice,2,16503,0.0-2.0-0.0,4868810,2023/10/18 14:07,2023/10/18 14:10,8956,,Array,vocab_task,Array,,,2
,survey-multi-choice,3,20670,0.0-2.0-1.0,4868810,2023/10/18 14:07,2023/10/18 14:10,4165,,Array,vocab_task,Array,,,2
,survey-multi-choice,4,26758,0.0-2.0-2.0,4868810,2023/10/18 14:07,2023/10/18 14:10,6086,,Array,vocab_task,Array,,,2
,survey-multi-choice,5,31751,0.0-2.0-3.0,4868810,2023/10/18 14:07,2023/10/18 14:10,4990,,Array,vocab_task,Array,,,2
,survey-multi-choice,6,37591,0.0-2.0-4.0,4868810,2023/10/18 14:07,2023/10/18 14:10,5837,,Array,vocab_task,Array,,,1
,survey-multi-choice,7,41463,0.0-2.0-5.0,4868810,2023/10/18 14:07,2023/10/18 14:10,3870,,Array,vocab_task,Array,,,2
,survey-multi-choice,8,55135,0.0-2.0-6.0,4868810,2023/10/18 14:07,2023/10/18 14:10,13670,,Array,vocab_task,Array,,,1
,survey-multi-choice,9,61967,0.0-2.0-7.0,4868810,2023/10/18 14:07,2023/10/18 14:10,6830,,Array,vocab_task,Array,,,2
,survey-multi-choice,10,72262,0.0-2.0-8.0,4868810,2023/10/18 14:07,2023/10/18 14:10,10293,,Array,vocab_task,Array,,,1
,survey-multi-choice,11,84982,0.0-2.0-9.0,4868810,2023/10/18 14:07,2023/10/18 14:10,12717,,Array,vocab_task,Array,,,2
,survey-multi-choice,12,93750,0.0-2.0-10.0,4868810,2023/10/18 14:07,2023/10/18 14:10,8766,,Array,vocab_task,Array,,,1
,survey-multi-choice,13,99807,0.0-2.0-11.0,4868810,2023/10/18 14:07,2023/10/18 14:10,6054,,Array,vocab_task,Array,,,2
,survey-multi-choice,14,104703,0.0-2.0-12.0,4868810,2023/10/18 14:07,2023/10/18 14:10,4894,,Array,vocab_task,Array,,,2
,survey-multi-choice,15,109879,0.0-2.0-13.0,4868810,2023/10/18 14:07,2023/10/18 14:10,5174,,Array,vocab_task,Array,,,2
,survey-multi-choice,16,115119,0.0-2.0-14.0,4868810,2023/10/18 14:07,2023/10/18 14:10,5238,,Array,vocab_task,Array,,,2
,survey-multi-choice,17,119431,0.0-2.0-15.0,4868810,2023/10/18 14:07,2023/10/18 14:10,4310,,Array,vocab_task,Array,,,2
,survey-multi-choice,18,125695,0.0-2.0-16.0,4868810,2023/10/18 14:07,2023/10/18 14:10,6262,,Array,vocab_task,Array,,,1
,survey-multi-choice,19,129814,0.0-2.0-17.0,4868810,2023/10/18 14:07,2023/10/18 14:10,4117,,Array,vocab_task,Array,,,0
,survey-multi-choice,20,137071,0.0-2.0-18.0,4868810,2023/10/18 14:07,2023/10/18 14:10,7254,,Array,vocab_task,Array,,,1
,survey-multi-choice,21,143511,0.0-2.0-19.0,4868810,2023/10/18 14:07,2023/10/18 14:10,6438,,Array,vocab_task,Array,,,0
,html-keyboard-response,22,145148,0.0-3.0,4868810,2023/10/18 14:07,2023/10/18 14:10,1635,<p style='text-algin:left'>これで実験は終了です。お疲れ様でした。</p><p style='text-algin:left'>スペースキーを押したのち、画面を閉じてください。</p>, ,vocab_debrief,,,,0
1,fullscreen,0,3369,0.0-0.0,1117797,2023/10/18 14:08,2023/10/18 14:11,,,,,,,,0
,html-keyboard-response,1,7664,0.0-1.0,1117797,2023/10/18 14:08,2023/10/18 14:11,4290,<p style='text-algin:left'>これから、20個の単語についてその意味をおききします。</p><p style='text-algin:left'>語の意味を表すものとして、<u>最も適切なもの</u>をひとつ選択してください。</p><p><br><br></br><p style='text-algin:left'>準備ができたらスペーキーを押して、課題をはじめてください。</p>, ,vocab_instruction,,,,0
,survey-multi-choice,2,23482,0.0-2.0-0.0,1117797,2023/10/18 14:08,2023/10/18 14:11,15814,,Array,vocab_task,Array,,,2
,survey-multi-choice,3,27799,0.0-2.0-1.0,1117797,2023/10/18 14:08,2023/10/18 14:11,4314,,Array,vocab_task,Array,,,2
,survey-multi-choice,4,31245,0.0-2.0-2.0,1117797,2023/10/18 14:08,2023/10/18 14:11,3444,,Array,vocab_task,Array,,,2
,survey-multi-choice,5,34810,0.0-2.0-3.0,1117797,2023/10/18 14:08,2023/10/18 14:11,3564,,Array,vocab_task,Array,,,2
,survey-multi-choice,6,37787,0.0-2.0-4.0,1117797,2023/10/18 14:08,2023/10/18 14:11,2974,,Array,vocab_task,Array,,,2
,survey-multi-choice,7,43519,0.0-2.0-5.0,1117797,2023/10/18 14:08,2023/10/18 14:11,5730,,Array,vocab_task,Array,,,2
,survey-multi-choice,8,49870,0.0-2.0-6.0,1117797,2023/10/18 14:08,2023/10/18 14:11,6349,,Array,vocab_task,Array,,,2
,survey-multi-choice,9,63795,0.0-2.0-7.0,1117797,2023/10/18 14:08,2023/10/18 14:11,13923,,Array,vocab_task,Array,,,2
,survey-multi-choice,10,76066,0.0-2.0-8.0,1117797,2023/10/18 14:08,2023/10/18 14:11,24745,,Array,vocab_task,Array,,,2
,survey-multi-choice,11,80502,0.0-2.0-9.0,1117797,2023/10/18 14:08,2023/10/18 14:11,4434,,Array,vocab_task,Array,,,2
,survey-multi-choice,12,86804,0.0-2.0-10.0,1117797,2023/10/18 14:08,2023/10/18 14:11,6300,,Array,vocab_task,Array,,,0
,survey-multi-choice,13,95679,0.0-2.0-11.0,1117797,2023/10/18 14:08,2023/10/18 14:11,8873,,Array,vocab_task,Array,,,2
,survey-multi-choice,14,111023,0.0-2.0-12.0,1117797,2023/10/18 14:08,2023/10/18 14:11,15342,,Array,vocab_task,Array,,,0
,survey-multi-choice,15,117511,0.0-2.0-13.0,1117797,2023/10/18 14:08,2023/10/18 14:11,6485,,Array,vocab_task,Array,,,1
,survey-multi-choice,16,121195,0.0-2.0-14.0,1117797,2023/10/18 14:08,2023/10/18 14:11,3682,,Array,vocab_task,Array,,,2
,survey-multi-choice,17,127126,0.0-2.0-15.0,1117797,2023/10/18 14:08,2023/10/18 14:11,5929,,Array,vocab_task,Array,,,2
,survey-multi-choice,18,134731,0.0-2.0-16.0,1117797,2023/10/18 14:08,2023/10/18 14:11,7602,,Array,vocab_task,Array,,,2
,survey-multi-choice,19,143288,0.0-2.0-17.0,1117797,2023/10/18 14:08,2023/10/18 14:11,8555,,Array,vocab_task,Array,,,2
,survey-multi-choice,20,148676,0.0-2.0-18.0,1117797,2023/10/18 14:08,2023/10/18 14:11,5385,,Array,vocab_task,Array,,,2
,survey-multi-choice,21,155503,0.0-2.0-19.0,1117797,2023/10/18 14:08,2023/10/18 14:11,6825,,Array,vocab_task,Array,,,2
,html-keyboard-response,22,157203,0.0-3.0,1117797,2023/10/18 14:08,2023/10/18 14:11,1697,<p style='text-algin:left'>これで実験は終了です。お疲れ様でした。</p><p style='text-algin:left'>スペースキーを押したのち、画面を閉じてください。</p>, ,vocab_debrief,,,,0
1,fullscreen,0,3976,0.0-0.0,312376,2023/10/18 14:08,2023/10/18 14:12,,,,,,,,0
,html-keyboard-response,1,8035,0.0-1.0,312376,2023/10/18 14:08,2023/10/18 14:12,4053,<p style='text-algin:left'>これから、20個の単語についてその意味をおききします。</p><p style='text-algin:left'>語の意味を表すものとして、<u>最も適切なもの</u>をひとつ選択してください。</p><p><br><br></br><p style='text-algin:left'>準備ができたらスペーキーを押して、課題をはじめてください。</p>, ,vocab_instruction,,,,0
,survey-multi-choice,2,15531,0.0-2.0-0.0,312376,2023/10/18 14:08,2023/10/18 14:12,7493,,Array,vocab_task,Array,,,2
,survey-multi-choice,3,30421,0.0-2.0-1.0,312376,2023/10/18 14:08,2023/10/18 14:12,14889,,Array,vocab_task,Array,,,1
,survey-multi-choice,4,36035,0.0-2.0-2.0,312376,2023/10/18 14:08,2023/10/18 14:12,5611,,Array,vocab_task,Array,,,2
,survey-multi-choice,5,41079,0.0-2.0-3.0,312376,2023/10/18 14:08,2023/10/18 14:12,5042,,Array,vocab_task,Array,,,2
,survey-multi-choice,6,48093,0.0-2.0-4.0,312376,2023/10/18 14:08,2023/10/18 14:12,7012,,Array,vocab_task,Array,,,2
,survey-multi-choice,7,52504,0.0-2.0-5.0,312376,2023/10/18 14:08,2023/10/18 14:12,4408,,Array,vocab_task,Array,,,2
,survey-multi-choice,8,64352,0.0-2.0-6.0,312376,2023/10/18 14:08,2023/10/18 14:12,11846,,Array,vocab_task,Array,,,1
,survey-multi-choice,9,77138,0.0-2.0-7.0,312376,2023/10/18 14:08,2023/10/18 14:12,12784,,Array,vocab_task,Array,,,2
,survey-multi-choice,10,95258,0.0-2.0-8.0,312376,2023/10/18 14:08,2023/10/18 14:12,18118,,Array,vocab_task,Array,,,0
,survey-multi-choice,11,109241,0.0-2.0-9.0,312376,2023/10/18 14:08,2023/10/18 14:12,13981,,Array,vocab_task,Array,,,2
,survey-multi-choice,12,120697,0.0-2.0-10.0,312376,2023/10/18 14:08,2023/10/18 14:12,11454,,Array,vocab_task,Array,,,0
,survey-multi-choice,13,131268,0.0-2.0-11.0,312376,2023/10/18 14:08,2023/10/18 14:12,10568,,Array,vocab_task,Array,,,0
,survey-multi-choice,14,146530,0.0-2.0-12.0,312376,2023/10/18 14:08,2023/10/18 14:12,15261,,Array,vocab_task,Array,,,2
,survey-multi-choice,15,152108,0.0-2.0-13.0,312376,2023/10/18 14:08,2023/10/18 14:12,5575,,Array,vocab_task,Array,,,2
,survey-multi-choice,16,162085,0.0-2.0-14.0,312376,2023/10/18 14:08,2023/10/18 14:12,9974,,Array,vocab_task,Array,,,1
,survey-multi-choice,17,175456,0.0-2.0-15.0,312376,2023/10/18 14:08,2023/10/18 14:12,13369,,Array,vocab_task,Array,,,2
,survey-multi-choice,18,191591,0.0-2.0-16.0,312376,2023/10/18 14:08,2023/10/18 14:12,16134,,Array,vocab_task,Array,,,1
,survey-multi-choice,19,198691,0.0-2.0-17.0,312376,2023/10/18 14:08,2023/10/18 14:12,7098,,Array,vocab_task,Array,,,2
,survey-multi-choice,20,209132,0.0-2.0-18.0,312376,2023/10/18 14:08,2023/10/18 14:12,10439,,Array,vocab_task,Array,,,2
,survey-multi-choice,21,223215,0.0-2.0-19.0,312376,2023/10/18 14:08,2023/10/18 14:12,14081,,Array,vocab_task,Array,,,2
,html-keyboard-response,22,225179,0.0-3.0,312376,2023/10/18 14:08,2023/10/18 14:12,1962,<p style='text-algin:left'>これで実験は終了です。お疲れ様でした。</p><p style='text-algin:left'>スペースキーを押したのち、画面を閉じてください。</p>, ,vocab_debrief,,,,0
1,fullscreen,0,6686,0.0-0.0,222621,2023/10/18 14:09,2023/10/18 14:14,,,,,,,,0
,html-keyboard-response,1,15635,0.0-1.0,222621,2023/10/18 14:09,2023/10/18 14:14,8945,<p style='text-algin:left'>これから、20個の単語についてその意味をおききします。</p><p style='text-algin:left'>語の意味を表すものとして、<u>最も適切なもの</u>をひとつ選択してください。</p><p><br><br></br><p style='text-algin:left'>準備ができたらスペーキーを押して、課題をはじめてください。</p>, ,vocab_instruction,,,,0
,survey-multi-choice,2,36517,0.0-2.0-0.0,222621,2023/10/18 14:09,2023/10/18 14:14,20878,,Array,vocab_task,Array,,,2
,survey-multi-choice,3,48993,0.0-2.0-1.0,222621,2023/10/18 14:09,2023/10/18 14:14,12471,,Array,vocab_task,Array,,,2
,survey-multi-choice,4,56028,0.0-2.0-2.0,222621,2023/10/18 14:09,2023/10/18 14:14,7032,,Array,vocab_task,Array,,,2
,survey-multi-choice,5,69134,0.0-2.0-3.0,222621,2023/10/18 14:09,2023/10/18 14:14,13103,,Array,vocab_task,Array,,,2
,survey-multi-choice,6,78865,0.0-2.0-4.0,222621,2023/10/18 14:09,2023/10/18 14:14,9728,,Array,vocab_task,Array,,,2
,survey-multi-choice,7,87017,0.0-2.0-5.0,222621,2023/10/18 14:09,2023/10/18 14:14,8148,,Array,vocab_task,Array,,,2
,survey-multi-choice,8,107385,0.0-2.0-6.0,222621,2023/10/18 14:09,2023/10/18 14:14,20364,,Array,vocab_task,Array,,,2
,survey-multi-choice,9,118237,0.0-2.0-7.0,222621,2023/10/18 14:09,2023/10/18 14:14,10847,,Array,vocab_task,Array,,,1
,survey-multi-choice,10,139089,0.0-2.0-8.0,222621,2023/10/18 14:09,2023/10/18 14:14,20851,,Array,vocab_task,Array,,,0
,survey-multi-choice,11,150825,0.0-2.0-9.0,222621,2023/10/18 14:09,2023/10/18 14:14,11732,,Array,vocab_task,Array,,,1
,survey-multi-choice,12,162149,0.0-2.0-10.0,222621,2023/10/18 14:09,2023/10/18 14:14,11321,,Array,vocab_task,Array,,,2
,survey-multi-choice,13,173341,0.0-2.0-11.0,222621,2023/10/18 14:09,2023/10/18 14:14,11188,,Array,vocab_task,Array,,,2
,survey-multi-choice,14,185153,0.0-2.0-12.0,222621,2023/10/18 14:09,2023/10/18 14:14,11808,,Array,vocab_task,Array,,,2
,survey-multi-choice,15,198961,0.0-2.0-13.0,222621,2023/10/18 14:09,2023/10/18 14:14,13807,,Array,vocab_task,Array,,,1
,survey-multi-choice,16,217401,0.0-2.0-14.0,222621,2023/10/18 14:09,2023/10/18 14:14,18436,,Array,vocab_task,Array,,,1
,survey-multi-choice,17,235261,0.0-2.0-15.0,222621,2023/10/18 14:09,2023/10/18 14:14,17856,,Array,vocab_task,Array,,,2
,survey-multi-choice,18,241605,0.0-2.0-16.0,222621,2023/10/18 14:09,2023/10/18 14:14,6340,,Array,vocab_task,Array,,,1
,survey-multi-choice,19,252753,0.0-2.0-17.0,222621,2023/10/18 14:09,2023/10/18 14:14,11146,,Array,vocab_task,Array,,,1
,survey-multi-choice,20,280581,0.0-2.0-18.0,222621,2023/10/18 14:09,2023/10/18 14:14,27826,,Array,vocab_task,Array,,,1
,survey-multi-choice,21,291697,0.0-2.0-19.0,222621,2023/10/18 14:09,2023/10/18 14:14,11114,,Array,vocab_task,Array,,,0
,html-keyboard-response,22,294775,0.0-3.0,222621,2023/10/18 14:09,2023/10/18 14:14,3074,<p style='text-algin:left'>これで実験は終了です。お疲れ様でした。</p><p style='text-algin:left'>スペースキーを押したのち、画面を閉じてください。</p>, ,vocab_debrief,,,,0
1,fullscreen,0,4050,0.0-0.0,3536109,2023/10/18 14:16,2023/10/18 14:22,,,,,,,,0
,html-keyboard-response,1,9095,0.0-1.0,3536109,2023/10/18 14:16,2023/10/18 14:22,5042,<p style='text-algin:left'>これから、20個の単語についてその意味をおききします。</p><p style='text-algin:left'>語の意味を表すものとして、<u>最も適切なもの</u>をひとつ選択してください。</p><p><br><br></br><p style='text-algin:left'>準備ができたらスペーキーを押して、課題をはじめてください。</p>, ,vocab_instruction,,,,0
,survey-multi-choice,2,27002,0.0-2.0-0.0,3536109,2023/10/18 14:16,2023/10/18 14:22,17905,,Array,vocab_task,Array,,,2
,survey-multi-choice,3,35201,0.0-2.0-1.0,3536109,2023/10/18 14:16,2023/10/18 14:22,8196,,Array,vocab_task,Array,,,2
,survey-multi-choice,4,40618,0.0-2.0-2.0,3536109,2023/10/18 14:16,2023/10/18 14:22,5414,,Array,vocab_task,Array,,,2
,survey-multi-choice,5,58703,0.0-2.0-3.0,3536109,2023/10/18 14:16,2023/10/18 14:22,18081,,Array,vocab_task,Array,,,1
,survey-multi-choice,6,70999,0.0-2.0-4.0,3536109,2023/10/18 14:16,2023/10/18 14:22,12293,,Array,vocab_task,Array,,,2
,survey-multi-choice,7,79632,0.0-2.0-5.0,3536109,2023/10/18 14:16,2023/10/18 14:22,8630,,Array,vocab_task,Array,,,2
,survey-multi-choice,8,93858,0.0-2.0-6.0,3536109,2023/10/18 14:16,2023/10/18 14:22,14223,,Array,vocab_task,Array,,,2
,survey-multi-choice,9,105963,0.0-2.0-7.0,3536109,2023/10/18 14:16,2023/10/18 14:22,12102,,Array,vocab_task,Array,,,2
,survey-multi-choice,10,125896,0.0-2.0-8.0,3536109,2023/10/18 14:16,2023/10/18 14:22,19930,,Array,vocab_task,Array,,,1
,survey-multi-choice,11,139690,0.0-2.0-9.0,3536109,2023/10/18 14:16,2023/10/18 14:22,13791,,Array,vocab_task,Array,,,0
,survey-multi-choice,12,155099,0.0-2.0-10.0,3536109,2023/10/18 14:16,2023/10/18 14:22,15405,,Array,vocab_task,Array,,,1
,survey-multi-choice,13,186088,0.0-2.0-11.0,3536109,2023/10/18 14:16,2023/10/18 14:22,30988,,Array,vocab_task,Array,,,2
,survey-multi-choice,14,221033,0.0-2.0-12.0,3536109,2023/10/18 14:16,2023/10/18 14:22,34942,,Array,vocab_task,Array,,,2
,survey-multi-choice,15,231417,0.0-2.0-13.0,3536109,2023/10/18 14:16,2023/10/18 14:22,10380,,Array,vocab_task,Array,,,1
,survey-multi-choice,16,243597,0.0-2.0-14.0,3536109,2023/10/18 14:16,2023/10/18 14:22,12177,,Array,vocab_task,Array,,,2
,survey-multi-choice,17,269202,0.0-2.0-15.0,3536109,2023/10/18 14:16,2023/10/18 14:22,25601,,Array,vocab_task,Array,,,0
,survey-multi-choice,18,283868,0.0-2.0-16.0,3536109,2023/10/18 14:16,2023/10/18 14:22,14663,,Array,vocab_task,Array,,,0
,survey-multi-choice,19,301080,0.0-2.0-17.0,3536109,2023/10/18 14:16,2023/10/18 14:22,17208,,Array,vocab_task,Array,,,1
,survey-multi-choice,20,323167,0.0-2.0-18.0,3536109,2023/10/18 14:16,2023/10/18 14:22,22083,,Array,vocab_task,Array,,,0
,survey-multi-choice,21,336974,0.0-2.0-19.0,3536109,2023/10/18 14:16,2023/10/18 14:22,13803,,Array,vocab_task,Array,,,0
,html-keyboard-response,22,339349,0.0-3.0,3536109,2023/10/18 14:16,2023/10/18 14:22,2373,<p style='text-algin:left'>これで実験は終了です。お疲れ様でした。</p><p style='text-algin:left'>スペースキーを押したのち、画面を閉じてください。</p>, ,vocab_debrief,,,,0
1,fullscreen,0,93027,0.0-0.0,1103016,2023/10/18 14:20,2023/10/18 14:24,,,,,,,,0
,html-keyboard-response,1,117315,0.0-1.0,1103016,2023/10/18 14:20,2023/10/18 14:24,23898,<p style='text-algin:left'>これから、20個の単語についてその意味をおききします。</p><p style='text-algin:left'>語の意味を表すものとして、<u>最も適切なもの</u>をひとつ選択してください。</p><p><br><br></br><p style='text-algin:left'>準備ができたらスペーキーを押して、課題をはじめてください。</p>, ,vocab_instruction,,,,0
,survey-multi-choice,2,124744,0.0-2.0-0.0,1103016,2023/10/18 14:20,2023/10/18 14:24,6952,,Array,vocab_task,Array,,,0
,survey-multi-choice,3,128043,0.0-2.0-1.0,1103016,2023/10/18 14:20,2023/10/18 14:24,3223,,Array,vocab_task,Array,,,2
,survey-multi-choice,4,132693,0.0-2.0-2.0,1103016,2023/10/18 14:20,2023/10/18 14:24,4625,,Array,vocab_task,Array,,,2
,survey-multi-choice,5,137138,0.0-2.0-3.0,1103016,2023/10/18 14:20,2023/10/18 14:24,4426,,Array,vocab_task,Array,,,1
,survey-multi-choice,6,143084,0.0-2.0-4.0,1103016,2023/10/18 14:20,2023/10/18 14:24,5938,,Array,vocab_task,Array,,,0
,survey-multi-choice,7,147363,0.0-2.0-5.0,1103016,2023/10/18 14:20,2023/10/18 14:24,4273,,Array,vocab_task,Array,,,2
,survey-multi-choice,8,154546,0.0-2.0-6.0,1103016,2023/10/18 14:20,2023/10/18 14:24,7174,,Array,vocab_task,Array,,,1
,survey-multi-choice,9,158111,0.0-2.0-7.0,1103016,2023/10/18 14:20,2023/10/18 14:24,3559,,Array,vocab_task,Array,,,2
,survey-multi-choice,10,165995,0.0-2.0-8.0,1103016,2023/10/18 14:20,2023/10/18 14:24,7875,,Array,vocab_task,Array,,,1
,survey-multi-choice,11,171093,0.0-2.0-9.0,1103016,2023/10/18 14:20,2023/10/18 14:24,5087,,Array,vocab_task,Array,,,1
,survey-multi-choice,12,175523,0.0-2.0-10.0,1103016,2023/10/18 14:20,2023/10/18 14:24,4423,,Array,vocab_task,Array,,,0
,survey-multi-choice,13,180348,0.0-2.0-11.0,1103016,2023/10/18 14:20,2023/10/18 14:24,4819,,Array,vocab_task,Array,,,2
,survey-multi-choice,14,185890,0.0-2.0-12.0,1103016,2023/10/18 14:20,2023/10/18 14:24,5536,,Array,vocab_task,Array,,,2
,survey-multi-choice,15,190731,0.0-2.0-13.0,1103016,2023/10/18 14:20,2023/10/18 14:24,4835,,Array,vocab_task,Array,,,0
,survey-multi-choice,16,195204,0.0-2.0-14.0,1103016,2023/10/18 14:20,2023/10/18 14:24,4466,,Array,vocab_task,Array,,,2
,survey-multi-choice,17,202856,0.0-2.0-15.0,1103016,2023/10/18 14:20,2023/10/18 14:24,7647,,Array,vocab_task,Array,,,0
,survey-multi-choice,18,207747,0.0-2.0-16.0,1103016,2023/10/18 14:20,2023/10/18 14:24,4885,,Array,vocab_task,Array,,,2
,survey-multi-choice,19,214425,0.0-2.0-17.0,1103016,2023/10/18 14:20,2023/10/18 14:24,6670,,Array,vocab_task,Array,,,0
,survey-multi-choice,20,222245,0.0-2.0-18.0,1103016,2023/10/18 14:20,2023/10/18 14:24,7815,,Array,vocab_task,Array,,,0
,survey-multi-choice,21,225862,0.0-2.0-19.0,1103016,2023/10/18 14:20,2023/10/18 14:24,3608,,Array,vocab_task,Array,,,2
,html-keyboard-response,22,242799,0.0-3.0,1103016,2023/10/18 14:20,2023/10/18 14:24,16931,<p style='text-algin:left'>これで実験は終了です。お疲れ様でした。</p><p style='text-algin:left'>スペースキーを押したのち、画面を閉じてください。</p>, ,vocab_debrief,,,,0
1,fullscreen,0,10349,0.0-0.0,96294,2023/10/18 14:19,2023/10/18 14:22,,,,,,,,0
,html-keyboard-response,1,13422,0.0-1.0,96294,2023/10/18 14:19,2023/10/18 14:22,3067,<p style='text-algin:left'>これから、20個の単語についてその意味をおききします。</p><p style='text-algin:left'>語の意味を表すものとして、<u>最も適切なもの</u>をひとつ選択してください。</p><p><br><br></br><p style='text-algin:left'>準備ができたらスペーキーを押して、課題をはじめてください。</p>, ,vocab_instruction,,,,0
,survey-multi-choice,2,19295,0.0-2.0-0.0,96294,2023/10/18 14:19,2023/10/18 14:22,5869,,Array,vocab_task,Array,,,2
,survey-multi-choice,3,23796,0.0-2.0-1.0,96294,2023/10/18 14:19,2023/10/18 14:22,4494,,Array,vocab_task,Array,,,2
,survey-multi-choice,4,29181,0.0-2.0-2.0,96294,2023/10/18 14:19,2023/10/18 14:22,5378,,Array,vocab_task,Array,,,2
,survey-multi-choice,5,34826,0.0-2.0-3.0,96294,2023/10/18 14:19,2023/10/18 14:22,5639,,Array,vocab_task,Array,,,2
,survey-multi-choice,6,40556,0.0-2.0-4.0,96294,2023/10/18 14:19,2023/10/18 14:22,5724,,Array,vocab_task,Array,,,2
,survey-multi-choice,7,46039,0.0-2.0-5.0,96294,2023/10/18 14:19,2023/10/18 14:22,5477,,Array,vocab_task,Array,,,2
,survey-multi-choice,8,61217,0.0-2.0-6.0,96294,2023/10/18 14:19,2023/10/18 14:22,15170,,Array,vocab_task,Array,,,2
,survey-multi-choice,9,66851,0.0-2.0-7.0,96294,2023/10/18 14:19,2023/10/18 14:22,5628,,Array,vocab_task,Array,,,2
,survey-multi-choice,10,80680,0.0-2.0-8.0,96294,2023/10/18 14:19,2023/10/18 14:22,13822,,Array,vocab_task,Array,,,1
,survey-multi-choice,11,91025,0.0-2.0-9.0,96294,2023/10/18 14:19,2023/10/18 14:22,10338,,Array,vocab_task,Array,,,1
,survey-multi-choice,12,96704,0.0-2.0-10.0,96294,2023/10/18 14:19,2023/10/18 14:22,5673,,Array,vocab_task,Array,,,2
,survey-multi-choice,13,103145,0.0-2.0-11.0,96294,2023/10/18 14:19,2023/10/18 14:22,6433,,Array,vocab_task,Array,,,2
,survey-multi-choice,14,111152,0.0-2.0-12.0,96294,2023/10/18 14:19,2023/10/18 14:22,8001,,Array,vocab_task,Array,,,2
,survey-multi-choice,15,116815,0.0-2.0-13.0,96294,2023/10/18 14:19,2023/10/18 14:22,5657,,Array,vocab_task,Array,,,1
,survey-multi-choice,16,121654,0.0-2.0-14.0,96294,2023/10/18 14:19,2023/10/18 14:22,4833,,Array,vocab_task,Array,,,2
,survey-multi-choice,17,127514,0.0-2.0-15.0,96294,2023/10/18 14:19,2023/10/18 14:22,5853,,Array,vocab_task,Array,,,2
,survey-multi-choice,18,136184,0.0-2.0-16.0,96294,2023/10/18 14:19,2023/10/18 14:22,8663,,Array,vocab_task,Array,,,0
,survey-multi-choice,19,144060,0.0-2.0-17.0,96294,2023/10/18 14:19,2023/10/18 14:22,7869,,Array,vocab_task,Array,,,1
,survey-multi-choice,20,151819,0.0-2.0-18.0,96294,2023/10/18 14:19,2023/10/18 14:22,7752,,Array,vocab_task,Array,,,2
,survey-multi-choice,21,160301,0.0-2.0-19.0,96294,2023/10/18 14:19,2023/10/18 14:22,8477,,Array,vocab_task,Array,,,2
,html-keyboard-response,22,162029,0.0-3.0,96294,2023/10/18 14:19,2023/10/18 14:22,1722,<p style='text-algin:left'>これで実験は終了です。お疲れ様でした。</p><p style='text-algin:left'>スペースキーを押したのち、画面を閉じてください。</p>, ,vocab_debrief,,,,0
1,fullscreen,0,9200,0.0-0.0,1304218,2023/10/18 14:20,2023/10/18 14:25,,,,,,,,0
,html-keyboard-response,1,24577,0.0-1.0,1304218,2023/10/18 14:20,2023/10/18 14:25,15375,<p style='text-algin:left'>これから、20個の単語についてその意味をおききします。</p><p style='text-algin:left'>語の意味を表すものとして、<u>最も適切なもの</u>をひとつ選択してください。</p><p><br><br></br><p style='text-algin:left'>準備ができたらスペーキーを押して、課題をはじめてください。</p>, ,vocab_instruction,,,,0
,survey-multi-choice,2,38178,0.0-2.0-0.0,1304218,2023/10/18 14:20,2023/10/18 14:25,13598,,Array,vocab_task,Array,,,2
,survey-multi-choice,3,54134,0.0-2.0-1.0,1304218,2023/10/18 14:20,2023/10/18 14:25,15953,,Array,vocab_task,Array,,,2
,survey-multi-choice,4,61690,0.0-2.0-2.0,1304218,2023/10/18 14:20,2023/10/18 14:25,7554,,Array,vocab_task,Array,,,2
,survey-multi-choice,5,76050,0.0-2.0-3.0,1304218,2023/10/18 14:20,2023/10/18 14:25,14357,,Array,vocab_task,Array,,,2
,survey-multi-choice,6,80866,0.0-2.0-4.0,1304218,2023/10/18 14:20,2023/10/18 14:25,4814,,Array,vocab_task,Array,,,2
,survey-multi-choice,7,87310,0.0-2.0-5.0,1304218,2023/10/18 14:20,2023/10/18 14:25,6442,,Array,vocab_task,Array,,,2
,survey-multi-choice,8,107822,0.0-2.0-6.0,1304218,2023/10/18 14:20,2023/10/18 14:25,20510,,Array,vocab_task,Array,,,1
,survey-multi-choice,9,119490,0.0-2.0-7.0,1304218,2023/10/18 14:20,2023/10/18 14:25,11665,,Array,vocab_task,Array,,,1
,survey-multi-choice,10,135638,0.0-2.0-8.0,1304218,2023/10/18 14:20,2023/10/18 14:25,16146,,Array,vocab_task,Array,,,1
,survey-multi-choice,11,147590,0.0-2.0-9.0,1304218,2023/10/18 14:20,2023/10/18 14:25,11950,,Array,vocab_task,Array,,,1
,survey-multi-choice,12,159046,0.0-2.0-10.0,1304218,2023/10/18 14:20,2023/10/18 14:25,11454,,Array,vocab_task,Array,,,2
,survey-multi-choice,13,174618,0.0-2.0-11.0,1304218,2023/10/18 14:20,2023/10/18 14:25,15570,,Array,vocab_task,Array,,,0
,survey-multi-choice,14,183018,0.0-2.0-12.0,1304218,2023/10/18 14:20,2023/10/18 14:25,8398,,Array,vocab_task,Array,,,0
,survey-multi-choice,15,196382,0.0-2.0-13.0,1304218,2023/10/18 14:20,2023/10/18 14:25,13362,,Array,vocab_task,Array,,,1
,survey-multi-choice,16,212682,0.0-2.0-14.0,1304218,2023/10/18 14:20,2023/10/18 14:25,16298,,Array,vocab_task,Array,,,0
,survey-multi-choice,17,230614,0.0-2.0-15.0,1304218,2023/10/18 14:20,2023/10/18 14:25,17930,,Array,vocab_task,Array,,,2
,survey-multi-choice,18,252674,0.0-2.0-16.0,1304218,2023/10/18 14:20,2023/10/18 14:25,22058,,Array,vocab_task,Array,,,1
,survey-multi-choice,19,265150,0.0-2.0-17.0,1304218,2023/10/18 14:20,2023/10/18 14:25,12474,,Array,vocab_task,Array,,,1
,survey-multi-choice,20,285502,0.0-2.0-18.0,1304218,2023/10/18 14:20,2023/10/18 14:25,20350,,Array,vocab_task,Array,,,1
,survey-multi-choice,21,296602,0.0-2.0-19.0,1304218,2023/10/18 14:20,2023/10/18 14:25,11098,,Array,vocab_task,Array,,,0
,html-keyboard-response,22,298744,0.0-3.0,1304218,2023/10/18 14:20,2023/10/18 14:25,2139,<p style='text-algin:left'>これで実験は終了です。お疲れ様でした。</p><p style='text-algin:left'>スペースキーを押したのち、画面を閉じてください。</p>, ,vocab_debrief,,,,0
1,fullscreen,0,5923,0.0-0.0,4883826,2023/10/18 14:22,2023/10/18 14:25,,,,,,,,0
,html-keyboard-response,1,15458,0.0-1.0,4883826,2023/10/18 14:22,2023/10/18 14:25,9529,<p style='text-algin:left'>これから、20個の単語についてその意味をおききします。</p><p style='text-algin:left'>語の意味を表すものとして、<u>最も適切なもの</u>をひとつ選択してください。</p><p><br><br></br><p style='text-algin:left'>準備ができたらスペーキーを押して、課題をはじめてください。</p>, ,vocab_instruction,,,,0
,survey-multi-choice,2,26631,0.0-2.0-0.0,4883826,2023/10/18 14:22,2023/10/18 14:25,11168,,Array,vocab_task,Array,,,2
,survey-multi-choice,3,33542,0.0-2.0-1.0,4883826,2023/10/18 14:22,2023/10/18 14:25,6907,,Array,vocab_task,Array,,,2
,survey-multi-choice,4,37974,0.0-2.0-2.0,4883826,2023/10/18 14:22,2023/10/18 14:25,4428,,Array,vocab_task,Array,,,2
,survey-multi-choice,5,46798,0.0-2.0-3.0,4883826,2023/10/18 14:22,2023/10/18 14:25,8820,,Array,vocab_task,Array,,,2
,survey-multi-choice,6,56534,0.0-2.0-4.0,4883826,2023/10/18 14:22,2023/10/18 14:25,9731,,Array,vocab_task,Array,,,2
,survey-multi-choice,7,67454,0.0-2.0-5.0,4883826,2023/10/18 14:22,2023/10/18 14:25,10917,,Array,vocab_task,Array,,,2
,survey-multi-choice,8,81414,0.0-2.0-6.0,4883826,2023/10/18 14:22,2023/10/18 14:25,13956,,Array,vocab_task,Array,,,1
,survey-multi-choice,9,92958,0.0-2.0-7.0,4883826,2023/10/18 14:22,2023/10/18 14:25,11540,,Array,vocab_task,Array,,,1
,survey-multi-choice,10,102182,0.0-2.0-8.0,4883826,2023/10/18 14:22,2023/10/18 14:25,9220,,Array,vocab_task,Array,,,1
,survey-multi-choice,11,112654,0.0-2.0-9.0,4883826,2023/10/18 14:22,2023/10/18 14:25,10468,,Array,vocab_task,Array,,,1
,survey-multi-choice,12,121437,0.0-2.0-10.0,4883826,2023/10/18 14:22,2023/10/18 14:25,8780,,Array,vocab_task,Array,,,1
,survey-multi-choice,13,128573,0.0-2.0-11.0,4883826,2023/10/18 14:22,2023/10/18 14:25,7132,,Array,vocab_task,Array,,,1
,survey-multi-choice,14,139525,0.0-2.0-12.0,4883826,2023/10/18 14:22,2023/10/18 14:25,10948,,Array,vocab_task,Array,,,1
,survey-multi-choice,15,150133,0.0-2.0-13.0,4883826,2023/10/18 14:22,2023/10/18 14:25,10605,,Array,vocab_task,Array,,,2
,survey-multi-choice,16,157341,0.0-2.0-14.0,4883826,2023/10/18 14:22,2023/10/18 14:25,7204,,Array,vocab_task,Array,,,0
,survey-multi-choice,17,166988,0.0-2.0-15.0,4883826,2023/10/18 14:22,2023/10/18 14:25,9644,,Array,vocab_task,Array,,,0
,survey-multi-choice,18,173469,0.0-2.0-16.0,4883826,2023/10/18 14:22,2023/10/18 14:25,6477,,Array,vocab_task,Array,,,2
,survey-multi-choice,19,182348,0.0-2.0-17.0,4883826,2023/10/18 14:22,2023/10/18 14:25,8876,,Array,vocab_task,Array,,,1
,survey-multi-choice,20,191284,0.0-2.0-18.0,4883826,2023/10/18 14:22,2023/10/18 14:25,8932,,Array,vocab_task,Array,,,1
,survey-multi-choice,21,195780,0.0-2.0-19.0,4883826,2023/10/18 14:22,2023/10/18 14:25,4492,,Array,vocab_task,Array,,,2
,html-keyboard-response,22,198187,0.0-3.0,4883826,2023/10/18 14:22,2023/10/18 14:25,2403,<p style='text-algin:left'>これで実験は終了です。お疲れ様でした。</p><p style='text-algin:left'>スペースキーを押したのち、画面を閉じてください。</p>, ,vocab_debrief,,,,0
1,fullscreen,0,3992,0.0-0.0,2577141,2023/10/18 14:25,2023/10/18 14:27,,,,,,,,0
,html-keyboard-response,1,9380,0.0-1.0,2577141,2023/10/18 14:25,2023/10/18 14:27,5384,<p style='text-algin:left'>これから、20個の単語についてその意味をおききします。</p><p style='text-algin:left'>語の意味を表すものとして、<u>最も適切なもの</u>をひとつ選択してください。</p><p><br><br></br><p style='text-algin:left'>準備ができたらスペーキーを押して、課題をはじめてください。</p>, ,vocab_instruction,,,,0
,survey-multi-choice,2,20204,0.0-2.0-0.0,2577141,2023/10/18 14:25,2023/10/18 14:27,10822,,Array,vocab_task,Array,,,2
,survey-multi-choice,3,24738,0.0-2.0-1.0,2577141,2023/10/18 14:25,2023/10/18 14:27,4529,,Array,vocab_task,Array,,,2
,survey-multi-choice,4,29632,0.0-2.0-2.0,2577141,2023/10/18 14:25,2023/10/18 14:27,4890,,Array,vocab_task,Array,,,2
,survey-multi-choice,5,35359,0.0-2.0-3.0,2577141,2023/10/18 14:25,2023/10/18 14:27,5721,,Array,vocab_task,Array,,,2
,survey-multi-choice,6,39172,0.0-2.0-4.0,2577141,2023/10/18 14:25,2023/10/18 14:27,3809,,Array,vocab_task,Array,,,2
,survey-multi-choice,7,43324,0.0-2.0-5.0,2577141,2023/10/18 14:25,2023/10/18 14:27,4146,,Array,vocab_task,Array,,,2
,survey-multi-choice,8,48117,0.0-2.0-6.0,2577141,2023/10/18 14:25,2023/10/18 14:27,4788,,Array,vocab_task,Array,,,2
,survey-multi-choice,9,52482,0.0-2.0-7.0,2577141,2023/10/18 14:25,2023/10/18 14:27,4360,,Array,vocab_task,Array,,,2
,survey-multi-choice,10,66657,0.0-2.0-8.0,2577141,2023/10/18 14:25,2023/10/18 14:27,14169,,Array,vocab_task,Array,,,1
,survey-multi-choice,11,71169,0.0-2.0-9.0,2577141,2023/10/18 14:25,2023/10/18 14:27,4507,,Array,vocab_task,Array,,,1
,survey-multi-choice,12,75884,0.0-2.0-10.0,2577141,2023/10/18 14:25,2023/10/18 14:27,4709,,Array,vocab_task,Array,,,2
,survey-multi-choice,13,81171,0.0-2.0-11.0,2577141,2023/10/18 14:25,2023/10/18 14:27,5281,,Array,vocab_task,Array,,,2
,survey-multi-choice,14,86323,0.0-2.0-12.0,2577141,2023/10/18 14:25,2023/10/18 14:27,5147,,Array,vocab_task,Array,,,2
,survey-multi-choice,15,90935,0.0-2.0-13.0,2577141,2023/10/18 14:25,2023/10/18 14:27,4607,,Array,vocab_task,Array,,,0
,survey-multi-choice,16,95301,0.0-2.0-14.0,2577141,2023/10/18 14:25,2023/10/18 14:27,4361,,Array,vocab_task,Array,,,2
,survey-multi-choice,17,102198,0.0-2.0-15.0,2577141,2023/10/18 14:25,2023/10/18 14:27,6893,,Array,vocab_task,Array,,,0
,survey-multi-choice,18,111671,0.0-2.0-16.0,2577141,2023/10/18 14:25,2023/10/18 14:27,9468,,Array,vocab_task,Array,,,1
,survey-multi-choice,19,116767,0.0-2.0-17.0,2577141,2023/10/18 14:25,2023/10/18 14:27,5089,,Array,vocab_task,Array,,,2
,survey-multi-choice,20,120838,0.0-2.0-18.0,2577141,2023/10/18 14:25,2023/10/18 14:27,4066,,Array,vocab_task,Array,,,0
,survey-multi-choice,21,127208,0.0-2.0-19.0,2577141,2023/10/18 14:25,2023/10/18 14:27,6366,,Array,vocab_task,Array,,,0
,html-keyboard-response,22,129499,0.0-3.0,2577141,2023/10/18 14:25,2023/10/18 14:27,2286,<p style='text-algin:left'>これで実験は終了です。お疲れ様でした。</p><p style='text-algin:left'>スペースキーを押したのち、画面を閉じてください。</p>, ,vocab_debrief,,,,0
1,fullscreen,0,3234,0.0-0.0,2382066,2023/10/18 14:32,2023/10/18 14:34,,,,,,,,0
,html-keyboard-response,1,8582,0.0-1.0,2382066,2023/10/18 14:32,2023/10/18 14:34,5345,<p style='text-algin:left'>これから、20個の単語についてその意味をおききします。</p><p style='text-algin:left'>語の意味を表すものとして、<u>最も適切なもの</u>をひとつ選択してください。</p><p><br><br></br><p style='text-algin:left'>準備ができたらスペーキーを押して、課題をはじめてください。</p>, ,vocab_instruction,,,,0
,survey-multi-choice,2,13467,0.0-2.0-0.0,2382066,2023/10/18 14:32,2023/10/18 14:34,4884,,Array,vocab_task,Array,,,0
,survey-multi-choice,3,19960,0.0-2.0-1.0,2382066,2023/10/18 14:32,2023/10/18 14:34,6491,,Array,vocab_task,Array,,,2
,survey-multi-choice,4,23989,0.0-2.0-2.0,2382066,2023/10/18 14:32,2023/10/18 14:34,4026,,Array,vocab_task,Array,,,2
,survey-multi-choice,5,28068,0.0-2.0-3.0,2382066,2023/10/18 14:32,2023/10/18 14:34,4075,,Array,vocab_task,Array,,,2
,survey-multi-choice,6,32494,0.0-2.0-4.0,2382066,2023/10/18 14:32,2023/10/18 14:34,4423,,Array,vocab_task,Array,,,2
,survey-multi-choice,7,36231,0.0-2.0-5.0,2382066,2023/10/18 14:32,2023/10/18 14:34,3733,,Array,vocab_task,Array,,,2
,survey-multi-choice,8,41658,0.0-2.0-6.0,2382066,2023/10/18 14:32,2023/10/18 14:34,5425,,Array,vocab_task,Array,,,2
,survey-multi-choice,9,47420,0.0-2.0-7.0,2382066,2023/10/18 14:32,2023/10/18 14:34,5758,,Array,vocab_task,Array,,,1
,survey-multi-choice,10,58144,0.0-2.0-8.0,2382066,2023/10/18 14:32,2023/10/18 14:34,10722,,Array,vocab_task,Array,,,0
,survey-multi-choice,11,62520,0.0-2.0-9.0,2382066,2023/10/18 14:32,2023/10/18 14:34,4373,,Array,vocab_task,Array,,,1
,survey-multi-choice,12,69788,0.0-2.0-10.0,2382066,2023/10/18 14:32,2023/10/18 14:34,7265,,Array,vocab_task,Array,,,0
,survey-multi-choice,13,77478,0.0-2.0-11.0,2382066,2023/10/18 14:32,2023/10/18 14:34,7687,,Array,vocab_task,Array,,,2
,survey-multi-choice,14,87803,0.0-2.0-12.0,2382066,2023/10/18 14:32,2023/10/18 14:34,10323,,Array,vocab_task,Array,,,0
,survey-multi-choice,15,92224,0.0-2.0-13.0,2382066,2023/10/18 14:32,2023/10/18 14:34,4418,,Array,vocab_task,Array,,,1
,survey-multi-choice,16,95562,0.0-2.0-14.0,2382066,2023/10/18 14:32,2023/10/18 14:34,3335,,Array,vocab_task,Array,,,1
,survey-multi-choice,17,100599,0.0-2.0-15.0,2382066,2023/10/18 14:32,2023/10/18 14:34,5035,,Array,vocab_task,Array,,,0
,survey-multi-choice,18,105248,0.0-2.0-16.0,2382066,2023/10/18 14:32,2023/10/18 14:34,4646,,Array,vocab_task,Array,,,0
,survey-multi-choice,19,109188,0.0-2.0-17.0,2382066,2023/10/18 14:32,2023/10/18 14:34,3937,,Array,vocab_task,Array,,,0
,survey-multi-choice,20,115082,0.0-2.0-18.0,2382066,2023/10/18 14:32,2023/10/18 14:34,5891,,Array,vocab_task,Array,,,0
,survey-multi-choice,21,119549,0.0-2.0-19.0,2382066,2023/10/18 14:32,2023/10/18 14:34,4465,,Array,vocab_task,Array,,,0
,html-keyboard-response,22,122623,0.0-3.0,2382066,2023/10/18 14:32,2023/10/18 14:34,3076,<p style='text-algin:left'>これで実験は終了です。お疲れ様でした。</p><p style='text-algin:left'>スペースキーを押したのち、画面を閉じてください。</p>, ,vocab_debrief,,,,0
1,fullscreen,0,3079,0.0-0.0,3270660,2023/10/18 14:40,2023/10/18 14:41,,,,,,,,0
,html-keyboard-response,1,6704,0.0-1.0,3270660,2023/10/18 14:40,2023/10/18 14:41,3623,<p style='text-algin:left'>これから、20個の単語についてその意味をおききします。</p><p style='text-algin:left'>語の意味を表すものとして、<u>最も適切なもの</u>をひとつ選択してください。</p><p><br><br></br><p style='text-algin:left'>準備ができたらスペーキーを押して、課題をはじめてください。</p>, ,vocab_instruction,,,,0
,survey-multi-choice,2,14152,0.0-2.0-0.0,3270660,2023/10/18 14:40,2023/10/18 14:41,7445,,Array,vocab_task,Array,,,0
,survey-multi-choice,3,18159,0.0-2.0-1.0,3270660,2023/10/18 14:40,2023/10/18 14:41,4000,,Array,vocab_task,Array,,,1
,survey-multi-choice,4,20711,0.0-2.0-2.0,3270660,2023/10/18 14:40,2023/10/18 14:41,2546,,Array,vocab_task,Array,,,2
,survey-multi-choice,5,23663,0.0-2.0-3.0,3270660,2023/10/18 14:40,2023/10/18 14:41,2946,,Array,vocab_task,Array,,,2
,survey-multi-choice,6,30615,0.0-2.0-4.0,3270660,2023/10/18 14:40,2023/10/18 14:41,6946,,Array,vocab_task,Array,,,0
,survey-multi-choice,7,33007,0.0-2.0-5.0,3270660,2023/10/18 14:40,2023/10/18 14:41,2386,,Array,vocab_task,Array,,,2
,survey-multi-choice,8,36255,0.0-2.0-6.0,3270660,2023/10/18 14:40,2023/10/18 14:41,3242,,Array,vocab_task,Array,,,1
,survey-multi-choice,9,39615,0.0-2.0-7.0,3270660,2023/10/18 14:40,2023/10/18 14:41,3354,,Array,vocab_task,Array,,,0
,survey-multi-choice,10,53111,0.0-2.0-8.0,3270660,2023/10/18 14:40,2023/10/18 14:41,13490,,Array,vocab_task,Array,,,2
,survey-multi-choice,11,58032,0.0-2.0-9.0,3270660,2023/10/18 14:40,2023/10/18 14:41,4914,,Array,vocab_task,Array,,,2
,survey-multi-choice,12,61576,0.0-2.0-10.0,3270660,2023/10/18 14:40,2023/10/18 14:41,3538,,Array,vocab_task,Array,,,2
,survey-multi-choice,13,65600,0.0-2.0-11.0,3270660,2023/10/18 14:40,2023/10/18 14:41,4018,,Array,vocab_task,Array,,,2
,survey-multi-choice,14,71000,0.0-2.0-12.0,3270660,2023/10/18 14:40,2023/10/18 14:41,5394,,Array,vocab_task,Array,,,2
,survey-multi-choice,15,74519,0.0-2.0-13.0,3270660,2023/10/18 14:40,2023/10/18 14:41,3514,,Array,vocab_task,Array,,,1
,survey-multi-choice,16,78759,0.0-2.0-14.0,3270660,2023/10/18 14:40,2023/10/18 14:41,4234,,Array,vocab_task,Array,,,2
,survey-multi-choice,17,82359,0.0-2.0-15.0,3270660,2023/10/18 14:40,2023/10/18 14:41,3595,,Array,vocab_task,Array,,,0
,survey-multi-choice,18,88567,0.0-2.0-16.0,3270660,2023/10/18 14:40,2023/10/18 14:41,6202,,Array,vocab_task,Array,,,2
,survey-multi-choice,19,91823,0.0-2.0-17.0,3270660,2023/10/18 14:40,2023/10/18 14:41,3251,,Array,vocab_task,Array,,,0
,survey-multi-choice,20,95327,0.0-2.0-18.0,3270660,2023/10/18 14:40,2023/10/18 14:41,3498,,Array,vocab_task,Array,,,2
,survey-multi-choice,21,98007,0.0-2.0-19.0,3270660,2023/10/18 14:40,2023/10/18 14:41,2675,,Array,vocab_task,Array,,,0
,html-keyboard-response,22,100326,0.0-3.0,3270660,2023/10/18 14:40,2023/10/18 14:41,2313,<p style='text-algin:left'>これで実験は終了です。お疲れ様でした。</p><p style='text-algin:left'>スペースキーを押したのち、画面を閉じてください。</p>, ,vocab_debrief,,,,0
1,fullscreen,0,9360,0.0-0.0,2677151,2023/10/18 14:47,2023/10/18 14:50,,,,,,,,0
,html-keyboard-response,1,14087,0.0-1.0,2677151,2023/10/18 14:47,2023/10/18 14:50,4724,<p style='text-algin:left'>これから、20個の単語についてその意味をおききします。</p><p style='text-algin:left'>語の意味を表すものとして、<u>最も適切なもの</u>をひとつ選択してください。</p><p><br><br></br><p style='text-algin:left'>準備ができたらスペーキーを押して、課題をはじめてください。</p>, ,vocab_instruction,,,,0
,survey-multi-choice,2,24393,0.0-2.0-0.0,2677151,2023/10/18 14:47,2023/10/18 14:50,10302,,Array,vocab_task,Array,,,2
,survey-multi-choice,3,36345,0.0-2.0-1.0,2677151,2023/10/18 14:47,2023/10/18 14:50,11937,,Array,vocab_task,Array,,,2
,survey-multi-choice,4,41424,0.0-2.0-2.0,2677151,2023/10/18 14:47,2023/10/18 14:50,5069,,Array,vocab_task,Array,,,2
,survey-multi-choice,5,47636,0.0-2.0-3.0,2677151,2023/10/18 14:47,2023/10/18 14:50,6214,,Array,vocab_task,Array,,,2
,survey-multi-choice,6,52260,0.0-2.0-4.0,2677151,2023/10/18 14:47,2023/10/18 14:50,4614,,Array,vocab_task,Array,,,2
,survey-multi-choice,7,58069,0.0-2.0-5.0,2677151,2023/10/18 14:47,2023/10/18 14:50,5799,,Array,vocab_task,Array,,,2
,survey-multi-choice,8,72172,0.0-2.0-6.0,2677151,2023/10/18 14:47,2023/10/18 14:50,14094,,Array,vocab_task,Array,,,2
,survey-multi-choice,9,79780,0.0-2.0-7.0,2677151,2023/10/18 14:47,2023/10/18 14:50,7598,,Array,vocab_task,Array,,,2
,survey-multi-choice,10,96076,0.0-2.0-8.0,2677151,2023/10/18 14:47,2023/10/18 14:50,16286,,Array,vocab_task,Array,,,0
,survey-multi-choice,11,105380,0.0-2.0-9.0,2677151,2023/10/18 14:47,2023/10/18 14:50,9294,,Array,vocab_task,Array,,,1
,survey-multi-choice,12,113880,0.0-2.0-10.0,2677151,2023/10/18 14:47,2023/10/18 14:50,8486,,Array,vocab_task,Array,,,1
,survey-multi-choice,13,127208,0.0-2.0-11.0,2677151,2023/10/18 14:47,2023/10/18 14:50,13319,,Array,vocab_task,Array,,,0
,survey-multi-choice,14,134544,0.0-2.0-12.0,2677151,2023/10/18 14:47,2023/10/18 14:50,7326,,Array,vocab_task,Array,,,2
,survey-multi-choice,15,141192,0.0-2.0-13.0,2677151,2023/10/18 14:47,2023/10/18 14:50,6638,,Array,vocab_task,Array,,,2
,survey-multi-choice,16,156311,0.0-2.0-14.0,2677151,2023/10/18 14:47,2023/10/18 14:50,15110,,Array,vocab_task,Array,,,1
,survey-multi-choice,17,170959,0.0-2.0-15.0,2677151,2023/10/18 14:47,2023/10/18 14:50,14638,,Array,vocab_task,Array,,,0
,survey-multi-choice,18,185443,0.0-2.0-16.0,2677151,2023/10/18 14:47,2023/10/18 14:50,14478,,Array,vocab_task,Array,,,1
,survey-multi-choice,19,190819,0.0-2.0-17.0,2677151,2023/10/18 14:47,2023/10/18 14:50,5366,,Array,vocab_task,Array,,,2
,survey-multi-choice,20,202163,0.0-2.0-18.0,2677151,2023/10/18 14:47,2023/10/18 14:50,11334,,Array,vocab_task,Array,,,0
,survey-multi-choice,21,208435,0.0-2.0-19.0,2677151,2023/10/18 14:47,2023/10/18 14:50,6262,,Array,vocab_task,Array,,,0
,html-keyboard-response,22,211030,0.0-3.0,2677151,2023/10/18 14:47,2023/10/18 14:50,2586,<p style='text-algin:left'>これで実験は終了です。お疲れ様でした。</p><p style='text-algin:left'>スペースキーを押したのち、画面を閉じてください。</p>, ,vocab_debrief,,,,0
1,fullscreen,0,2666,0.0-0.0,4523774,2023/10/18 14:56,2023/10/18 15:00,,,,,,,,0
,html-keyboard-response,1,8645,0.0-1.0,4523774,2023/10/18 14:56,2023/10/18 15:00,5978,<p style='text-algin:left'>これから、20個の単語についてその意味をおききします。</p><p style='text-algin:left'>語の意味を表すものとして、<u>最も適切なもの</u>をひとつ選択してください。</p><p><br><br></br><p style='text-algin:left'>準備ができたらスペーキーを押して、課題をはじめてください。</p>, ,vocab_instruction,,,,0
,survey-multi-choice,2,17341,0.0-2.0-0.0,4523774,2023/10/18 14:56,2023/10/18 15:00,8695,,Array,vocab_task,Array,,,0
,survey-multi-choice,3,23643,0.0-2.0-1.0,4523774,2023/10/18 14:56,2023/10/18 15:00,6299,,Array,vocab_task,Array,,,2
,survey-multi-choice,4,28649,0.0-2.0-2.0,4523774,2023/10/18 14:56,2023/10/18 15:00,5003,,Array,vocab_task,Array,,,2
,survey-multi-choice,5,34285,0.0-2.0-3.0,4523774,2023/10/18 14:56,2023/10/18 15:00,5634,,Array,vocab_task,Array,,,0
,survey-multi-choice,6,41163,0.0-2.0-4.0,4523774,2023/10/18 14:56,2023/10/18 15:00,6876,,Array,vocab_task,Array,,,2
,survey-multi-choice,7,50148,0.0-2.0-5.0,4523774,2023/10/18 14:56,2023/10/18 15:00,8983,,Array,vocab_task,Array,,,2
,survey-multi-choice,8,58978,0.0-2.0-6.0,4523774,2023/10/18 14:56,2023/10/18 15:00,8829,,Array,vocab_task,Array,,,1
,survey-multi-choice,9,64801,0.0-2.0-7.0,4523774,2023/10/18 14:56,2023/10/18 15:00,5820,,Array,vocab_task,Array,,,1
,survey-multi-choice,10,79423,0.0-2.0-8.0,4523774,2023/10/18 14:56,2023/10/18 15:00,14620,,Array,vocab_task,Array,,,2
,survey-multi-choice,11,88246,0.0-2.0-9.0,4523774,2023/10/18 14:56,2023/10/18 15:00,8822,,Array,vocab_task,Array,,,1
,survey-multi-choice,12,97193,0.0-2.0-10.0,4523774,2023/10/18 14:56,2023/10/18 15:00,8943,,Array,vocab_task,Array,,,0
,survey-multi-choice,13,105925,0.0-2.0-11.0,4523774,2023/10/18 14:56,2023/10/18 15:00,8730,,Array,vocab_task,Array,,,2
,survey-multi-choice,14,113469,0.0-2.0-12.0,4523774,2023/10/18 14:56,2023/10/18 15:00,7542,,Array,vocab_task,Array,,,2
,survey-multi-choice,15,122174,0.0-2.0-13.0,4523774,2023/10/18 14:56,2023/10/18 15:00,8704,,Array,vocab_task,Array,,,1
,survey-multi-choice,16,126766,0.0-2.0-14.0,4523774,2023/10/18 14:56,2023/10/18 15:00,4590,,Array,vocab_task,Array,,,1
,survey-multi-choice,17,139018,0.0-2.0-15.0,4523774,2023/10/18 14:56,2023/10/18 15:00,12250,,Array,vocab_task,Array,,,1
,survey-multi-choice,18,149942,0.0-2.0-16.0,4523774,2023/10/18 14:56,2023/10/18 15:00,10922,,Array,vocab_task,Array,,,1
,survey-multi-choice,19,160012,0.0-2.0-17.0,4523774,2023/10/18 14:56,2023/10/18 15:00,10068,,Array,vocab_task,Array,,,2
,survey-multi-choice,20,195005,0.0-2.0-18.0,4523774,2023/10/18 14:56,2023/10/18 15:00,34992,,Array,vocab_task,Array,,,2
,survey-multi-choice,21,209550,0.0-2.0-19.0,4523774,2023/10/18 14:56,2023/10/18 15:00,14542,,Array,vocab_task,Array,,,0
,html-keyboard-response,22,212020,0.0-3.0,4523774,2023/10/18 14:56,2023/10/18 15:00,2468,<p style='text-algin:left'>これで実験は終了です。お疲れ様でした。</p><p style='text-algin:left'>スペースキーを押したのち、画面を閉じてください。</p>, ,vocab_debrief,,,,0
1,fullscreen,0,7505,0.0-0.0,4733003,2023/10/18 1:00,2023/10/18 1:02,,,,,,,,0
,html-keyboard-response,1,11893,0.0-1.0,4733003,2023/10/18 1:00,2023/10/18 1:02,4384,<p style='text-algin:left'>これから、20個の単語についてその意味をおききします。</p><p style='text-algin:left'>語の意味を表すものとして、<u>最も適切なもの</u>をひとつ選択してください。</p><p><br><br></br><p style='text-algin:left'>準備ができたらスペーキーを押して、課題をはじめてください。</p>, ,vocab_instruction,,,,0
,survey-multi-choice,2,15753,0.0-2.0-0.0,4733003,2023/10/18 1:00,2023/10/18 1:02,3856,,Array,vocab_task,Array,,,2
,survey-multi-choice,3,19899,0.0-2.0-1.0,4733003,2023/10/18 1:00,2023/10/18 1:02,4142,,Array,vocab_task,Array,,,2
,survey-multi-choice,4,23180,0.0-2.0-2.0,4733003,2023/10/18 1:00,2023/10/18 1:02,3278,,Array,vocab_task,Array,,,2
,survey-multi-choice,5,28975,0.0-2.0-3.0,4733003,2023/10/18 1:00,2023/10/18 1:02,5792,,Array,vocab_task,Array,,,2
,survey-multi-choice,6,31488,0.0-2.0-4.0,4733003,2023/10/18 1:00,2023/10/18 1:02,2510,,Array,vocab_task,Array,,,2
,survey-multi-choice,7,34874,0.0-2.0-5.0,4733003,2023/10/18 1:00,2023/10/18 1:02,3383,,Array,vocab_task,Array,,,2
,survey-multi-choice,8,39260,0.0-2.0-6.0,4733003,2023/10/18 1:00,2023/10/18 1:02,4383,,Array,vocab_task,Array,,,2
,survey-multi-choice,9,43478,0.0-2.0-7.0,4733003,2023/10/18 1:00,2023/10/18 1:02,4215,,Array,vocab_task,Array,,,0
,survey-multi-choice,10,48625,0.0-2.0-8.0,4733003,2023/10/18 1:00,2023/10/18 1:02,5144,,Array,vocab_task,Array,,,2
,survey-multi-choice,11,52659,0.0-2.0-9.0,4733003,2023/10/18 1:00,2023/10/18 1:02,4031,,Array,vocab_task,Array,,,1
,survey-multi-choice,12,56203,0.0-2.0-10.0,4733003,2023/10/18 1:00,2023/10/18 1:02,3542,,Array,vocab_task,Array,,,2
,survey-multi-choice,13,59014,0.0-2.0-11.0,4733003,2023/10/18 1:00,2023/10/18 1:02,2807,,Array,vocab_task,Array,,,2
,survey-multi-choice,14,62559,0.0-2.0-12.0,4733003,2023/10/18 1:00,2023/10/18 1:02,3542,,Array,vocab_task,Array,,,1
,survey-multi-choice,15,67801,0.0-2.0-13.0,4733003,2023/10/18 1:00,2023/10/18 1:02,5240,,Array,vocab_task,Array,,,1
,survey-multi-choice,16,72860,0.0-2.0-14.0,4733003,2023/10/18 1:00,2023/10/18 1:02,5055,,Array,vocab_task,Array,,,2
,survey-multi-choice,17,78503,0.0-2.0-15.0,4733003,2023/10/18 1:00,2023/10/18 1:02,5641,,Array,vocab_task,Array,,,2
,survey-multi-choice,18,81816,0.0-2.0-16.0,4733003,2023/10/18 1:00,2023/10/18 1:02,3310,,Array,vocab_task,Array,,,1
,survey-multi-choice,19,86563,0.0-2.0-17.0,4733003,2023/10/18 1:00,2023/10/18 1:02,4744,,Array,vocab_task,Array,,,0
,survey-multi-choice,20,89747,0.0-2.0-18.0,4733003,2023/10/18 1:00,2023/10/18 1:02,3182,,Array,vocab_task,Array,,,2
,survey-multi-choice,21,94206,0.0-2.0-19.0,4733003,2023/10/18 1:00,2023/10/18 1:02,4455,,Array,vocab_task,Array,,,0
,html-keyboard-response,22,96069,0.0-3.0,4733003,2023/10/18 1:00,2023/10/18 1:02,1860,<p style='text-algin:left'>これで実験は終了です。お疲れ様でした。</p><p style='text-algin:left'>スペースキーを押したのち、画面を閉じてください。</p>, ,vocab_debrief,,,,0
1,fullscreen,0,3880,0.0-0.0,279820,2023/10/18 14:59,2023/10/18 15:02,,,,,,,,0
,html-keyboard-response,1,20153,0.0-1.0,279820,2023/10/18 14:59,2023/10/18 15:02,16272,<p style='text-algin:left'>これから、20個の単語についてその意味をおききします。</p><p style='text-algin:left'>語の意味を表すものとして、<u>最も適切なもの</u>をひとつ選択してください。</p><p><br><br></br><p style='text-algin:left'>準備ができたらスペーキーを押して、課題をはじめてください。</p>, ,vocab_instruction,,,,0
,survey-multi-choice,2,26621,0.0-2.0-0.0,279820,2023/10/18 14:59,2023/10/18 15:02,6466,,Array,vocab_task,Array,,,2
,survey-multi-choice,3,31565,0.0-2.0-1.0,279820,2023/10/18 14:59,2023/10/18 15:02,4941,,Array,vocab_task,Array,,,2
,survey-multi-choice,4,35061,0.0-2.0-2.0,279820,2023/10/18 14:59,2023/10/18 15:02,3493,,Array,vocab_task,Array,,,2
,survey-multi-choice,5,39933,0.0-2.0-3.0,279820,2023/10/18 14:59,2023/10/18 15:02,4869,,Array,vocab_task,Array,,,2
,survey-multi-choice,6,46789,0.0-2.0-4.0,279820,2023/10/18 14:59,2023/10/18 15:02,6853,,Array,vocab_task,Array,,,2
,survey-multi-choice,7,50333,0.0-2.0-5.0,279820,2023/10/18 14:59,2023/10/18 15:02,3541,,Array,vocab_task,Array,,,2
,survey-multi-choice,8,58701,0.0-2.0-6.0,279820,2023/10/18 14:59,2023/10/18 15:02,8366,,Array,vocab_task,Array,,,2
,survey-multi-choice,9,63005,0.0-2.0-7.0,279820,2023/10/18 14:59,2023/10/18 15:02,4301,,Array,vocab_task,Array,,,2
,survey-multi-choice,10,76645,0.0-2.0-8.0,279820,2023/10/18 14:59,2023/10/18 15:02,13637,,Array,vocab_task,Array,,,1
,survey-multi-choice,11,82812,0.0-2.0-9.0,279820,2023/10/18 14:59,2023/10/18 15:02,6165,,Array,vocab_task,Array,,,1
,survey-multi-choice,12,91917,0.0-2.0-10.0,279820,2023/10/18 14:59,2023/10/18 15:02,9102,,Array,vocab_task,Array,,,2
,survey-multi-choice,13,99341,0.0-2.0-11.0,279820,2023/10/18 14:59,2023/10/18 15:02,7421,,Array,vocab_task,Array,,,2
,survey-multi-choice,14,110012,0.0-2.0-12.0,279820,2023/10/18 14:59,2023/10/18 15:02,10669,,Array,vocab_task,Array,,,2
,survey-multi-choice,15,116028,0.0-2.0-13.0,279820,2023/10/18 14:59,2023/10/18 15:02,6013,,Array,vocab_task,Array,,,2
,survey-multi-choice,16,120109,0.0-2.0-14.0,279820,2023/10/18 14:59,2023/10/18 15:02,4077,,Array,vocab_task,Array,,,2
,survey-multi-choice,17,130749,0.0-2.0-15.0,279820,2023/10/18 14:59,2023/10/18 15:02,10637,,Array,vocab_task,Array,,,2
,survey-multi-choice,18,136509,0.0-2.0-16.0,279820,2023/10/18 14:59,2023/10/18 15:02,5758,,Array,vocab_task,Array,,,1
,survey-multi-choice,19,144637,0.0-2.0-17.0,279820,2023/10/18 14:59,2023/10/18 15:02,8125,,Array,vocab_task,Array,,,0
,survey-multi-choice,20,150885,0.0-2.0-18.0,279820,2023/10/18 14:59,2023/10/18 15:02,6245,,Array,vocab_task,Array,,,1
,survey-multi-choice,21,162501,0.0-2.0-19.0,279820,2023/10/18 14:59,2023/10/18 15:02,11613,,Array,vocab_task,Array,,,1
,html-keyboard-response,22,164024,0.0-3.0,279820,2023/10/18 14:59,2023/10/18 15:02,1521,<p style='text-algin:left'>これで実験は終了です。お疲れ様でした。</p><p style='text-algin:left'>スペースキーを押したのち、画面を閉じてください。</p>, ,vocab_debrief,,,,0
1,fullscreen,0,8810,0.0-0.0,4549143,2023/10/18 14:53,2023/10/18 15:03,,,,,,,,0
,html-keyboard-response,1,20203,0.0-1.0,4549143,2023/10/18 14:53,2023/10/18 15:03,11391,<p style='text-algin:left'>これから、20個の単語についてその意味をおききします。</p><p style='text-algin:left'>語の意味を表すものとして、<u>最も適切なもの</u>をひとつ選択してください。</p><p><br><br></br><p style='text-algin:left'>準備ができたらスペーキーを押して、課題をはじめてください。</p>, ,vocab_instruction,,,,0
,survey-multi-choice,2,48092,0.0-2.0-0.0,4549143,2023/10/18 14:53,2023/10/18 15:03,27888,,Array,vocab_task,Array,,,2
,survey-multi-choice,3,77756,0.0-2.0-1.0,4549143,2023/10/18 14:53,2023/10/18 15:03,29661,,Array,vocab_task,Array,,,2
,survey-multi-choice,4,89597,0.0-2.0-2.0,4549143,2023/10/18 14:53,2023/10/18 15:03,11838,,Array,vocab_task,Array,,,2
,survey-multi-choice,5,107586,0.0-2.0-3.0,4549143,2023/10/18 14:53,2023/10/18 15:03,17986,,Array,vocab_task,Array,,,2
,survey-multi-choice,6,132103,0.0-2.0-4.0,4549143,2023/10/18 14:53,2023/10/18 15:03,24515,,Array,vocab_task,Array,,,2
,survey-multi-choice,7,148220,0.0-2.0-5.0,4549143,2023/10/18 14:53,2023/10/18 15:03,16113,,Array,vocab_task,Array,,,2
,survey-multi-choice,8,177885,0.0-2.0-6.0,4549143,2023/10/18 14:53,2023/10/18 15:03,29663,,Array,vocab_task,Array,,,2
,survey-multi-choice,9,201619,0.0-2.0-7.0,4549143,2023/10/18 14:53,2023/10/18 15:03,23730,,Array,vocab_task,Array,,,2
,survey-multi-choice,10,221492,0.0-2.0-8.0,4549143,2023/10/18 14:53,2023/10/18 15:03,19871,,Array,vocab_task,Array,,,0
,survey-multi-choice,11,258971,0.0-2.0-9.0,4549143,2023/10/18 14:53,2023/10/18 15:03,37476,,Array,vocab_task,Array,,,2
,survey-multi-choice,12,298485,0.0-2.0-10.0,4549143,2023/10/18 14:53,2023/10/18 15:03,39511,,Array,vocab_task,Array,,,1
,survey-multi-choice,13,318380,0.0-2.0-11.0,4549143,2023/10/18 14:53,2023/10/18 15:03,19893,,Array,vocab_task,Array,,,2
,survey-multi-choice,14,352504,0.0-2.0-12.0,4549143,2023/10/18 14:53,2023/10/18 15:03,34122,,Array,vocab_task,Array,,,1
,survey-multi-choice,15,377994,0.0-2.0-13.0,4549143,2023/10/18 14:53,2023/10/18 15:03,25488,,Array,vocab_task,Array,,,2
,survey-multi-choice,16,407155,0.0-2.0-14.0,4549143,2023/10/18 14:53,2023/10/18 15:03,29158,,Array,vocab_task,Array,,,0
,survey-multi-choice,17,454607,0.0-2.0-15.0,4549143,2023/10/18 14:53,2023/10/18 15:03,47450,,Array,vocab_task,Array,,,0
,survey-multi-choice,18,475198,0.0-2.0-16.0,4549143,2023/10/18 14:53,2023/10/18 15:03,20588,,Array,vocab_task,Array,,,1
,survey-multi-choice,19,492770,0.0-2.0-17.0,4549143,2023/10/18 14:53,2023/10/18 15:03,17569,,Array,vocab_task,Array,,,0
,survey-multi-choice,20,532806,0.0-2.0-18.0,4549143,2023/10/18 14:53,2023/10/18 15:03,40034,,Array,vocab_task,Array,,,1
,survey-multi-choice,21,561321,0.0-2.0-19.0,4549143,2023/10/18 14:53,2023/10/18 15:03,28511,,Array,vocab_task,Array,,,2
,html-keyboard-response,22,566347,0.0-3.0,4549143,2023/10/18 14:53,2023/10/18 15:03,5025,<p style='text-algin:left'>これで実験は終了です。お疲れ様でした。</p><p style='text-algin:left'>スペースキーを押したのち、画面を閉じてください。</p>, ,vocab_debrief,,,,0
1,fullscreen,0,11091,0.0-0.0,930821,2023/10/18 15:05,2023/10/18 15:07,,,,,,,,0
,html-keyboard-response,1,17964,0.0-1.0,930821,2023/10/18 15:05,2023/10/18 15:07,6870,<p style='text-algin:left'>これから、20個の単語についてその意味をおききします。</p><p style='text-algin:left'>語の意味を表すものとして、<u>最も適切なもの</u>をひとつ選択してください。</p><p><br><br></br><p style='text-algin:left'>準備ができたらスペーキーを押して、課題をはじめてください。</p>, ,vocab_instruction,,,,0
,survey-multi-choice,2,22657,0.0-2.0-0.0,930821,2023/10/18 15:05,2023/10/18 15:07,4684,,Array,vocab_task,Array,,,1
,survey-multi-choice,3,27668,0.0-2.0-1.0,930821,2023/10/18 15:05,2023/10/18 15:07,5006,,Array,vocab_task,Array,,,1
,survey-multi-choice,4,29573,0.0-2.0-2.0,930821,2023/10/18 15:05,2023/10/18 15:07,1901,,Array,vocab_task,Array,,,2
,survey-multi-choice,5,31117,0.0-2.0-3.0,930821,2023/10/18 15:05,2023/10/18 15:07,1540,,Array,vocab_task,Array,,,0
,survey-multi-choice,6,38282,0.0-2.0-4.0,930821,2023/10/18 15:05,2023/10/18 15:07,7161,,Array,vocab_task,Array,,,0
,survey-multi-choice,7,40018,0.0-2.0-5.0,930821,2023/10/18 15:05,2023/10/18 15:07,1731,,Array,vocab_task,Array,,,2
,survey-multi-choice,8,41496,0.0-2.0-6.0,930821,2023/10/18 15:05,2023/10/18 15:07,1474,,Array,vocab_task,Array,,,0
,survey-multi-choice,9,44455,0.0-2.0-7.0,930821,2023/10/18 15:05,2023/10/18 15:07,2956,,Array,vocab_task,Array,,,1
,survey-multi-choice,10,48725,0.0-2.0-8.0,930821,2023/10/18 15:05,2023/10/18 15:07,4266,,Array,vocab_task,Array,,,0
,survey-multi-choice,11,50666,0.0-2.0-9.0,930821,2023/10/18 15:05,2023/10/18 15:07,1936,,Array,vocab_task,Array,,,1
,survey-multi-choice,12,54905,0.0-2.0-10.0,930821,2023/10/18 15:05,2023/10/18 15:07,4235,,Array,vocab_task,Array,,,0
,survey-multi-choice,13,56722,0.0-2.0-11.0,930821,2023/10/18 15:05,2023/10/18 15:07,1812,,Array,vocab_task,Array,,,0
,survey-multi-choice,14,86370,0.0-2.0-12.0,930821,2023/10/18 15:05,2023/10/18 15:07,29640,,Array,vocab_task,Array,,,0
,survey-multi-choice,15,88074,0.0-2.0-13.0,930821,2023/10/18 15:05,2023/10/18 15:07,1700,,Array,vocab_task,Array,,,1
,survey-multi-choice,16,89925,0.0-2.0-14.0,930821,2023/10/18 15:05,2023/10/18 15:07,1848,,Array,vocab_task,Array,,,0
,survey-multi-choice,17,100572,0.0-2.0-15.0,930821,2023/10/18 15:05,2023/10/18 15:07,10642,,Array,vocab_task,Array,,,2
,survey-multi-choice,18,101683,0.0-2.0-16.0,930821,2023/10/18 15:05,2023/10/18 15:07,1107,,Array,vocab_task,Array,,,0
,survey-multi-choice,19,103365,0.0-2.0-17.0,930821,2023/10/18 15:05,2023/10/18 15:07,1678,,Array,vocab_task,Array,,,0
,survey-multi-choice,20,104427,0.0-2.0-18.0,930821,2023/10/18 15:05,2023/10/18 15:07,1059,,Array,vocab_task,Array,,,0
,survey-multi-choice,21,105595,0.0-2.0-19.0,930821,2023/10/18 15:05,2023/10/18 15:07,1165,,Array,vocab_task,Array,,,0
,html-keyboard-response,22,107433,0.0-3.0,930821,2023/10/18 15:05,2023/10/18 15:07,1835,<p style='text-algin:left'>これで実験は終了です。お疲れ様でした。</p><p style='text-algin:left'>スペースキーを押したのち、画面を閉じてください。</p>, ,vocab_debrief,,,,0
1,fullscreen,0,2559,0.0-0.0,1221408,2023/10/18 1:09,2023/10/18 1:10,,,,,,,,0
,html-keyboard-response,1,5004,0.0-1.0,1221408,2023/10/18 1:09,2023/10/18 1:10,2438,<p style='text-algin:left'>これから、20個の単語についてその意味をおききします。</p><p style='text-algin:left'>語の意味を表すものとして、<u>最も適切なもの</u>をひとつ選択してください。</p><p><br><br></br><p style='text-algin:left'>準備ができたらスペーキーを押して、課題をはじめてください。</p>, ,vocab_instruction,,,,0
,survey-multi-choice,2,9164,0.0-2.0-0.0,1221408,2023/10/18 1:09,2023/10/18 1:10,4154,,Array,vocab_task,Array,,,2
,survey-multi-choice,3,13894,0.0-2.0-1.0,1221408,2023/10/18 1:09,2023/10/18 1:10,4727,,Array,vocab_task,Array,,,1
,survey-multi-choice,4,16543,0.0-2.0-2.0,1221408,2023/10/18 1:09,2023/10/18 1:10,2646,,Array,vocab_task,Array,,,2
,survey-multi-choice,5,20089,0.0-2.0-3.0,1221408,2023/10/18 1:09,2023/10/18 1:10,3542,,Array,vocab_task,Array,,,2
,survey-multi-choice,6,23043,0.0-2.0-4.0,1221408,2023/10/18 1:09,2023/10/18 1:10,2951,,Array,vocab_task,Array,,,1
,survey-multi-choice,7,27773,0.0-2.0-5.0,1221408,2023/10/18 1:09,2023/10/18 1:10,4728,,Array,vocab_task,Array,,,2
,survey-multi-choice,8,31854,0.0-2.0-6.0,1221408,2023/10/18 1:09,2023/10/18 1:10,4079,,Array,vocab_task,Array,,,1
,survey-multi-choice,9,36041,0.0-2.0-7.0,1221408,2023/10/18 1:09,2023/10/18 1:10,4183,,Array,vocab_task,Array,,,2
,survey-multi-choice,10,39866,0.0-2.0-8.0,1221408,2023/10/18 1:09,2023/10/18 1:10,3823,,Array,vocab_task,Array,,,1
,survey-multi-choice,11,43044,0.0-2.0-9.0,1221408,2023/10/18 1:09,2023/10/18 1:10,3175,,Array,vocab_task,Array,,,2
,survey-multi-choice,12,46982,0.0-2.0-10.0,1221408,2023/10/18 1:09,2023/10/18 1:10,3935,,Array,vocab_task,Array,,,1
,survey-multi-choice,13,50888,0.0-2.0-11.0,1221408,2023/10/18 1:09,2023/10/18 1:10,3903,,Array,vocab_task,Array,,,0
,survey-multi-choice,14,53841,0.0-2.0-12.0,1221408,2023/10/18 1:09,2023/10/18 1:10,2950,,Array,vocab_task,Array,,,0
,survey-multi-choice,15,56571,0.0-2.0-13.0,1221408,2023/10/18 1:09,2023/10/18 1:10,2727,,Array,vocab_task,Array,,,1
,survey-multi-choice,16,59531,0.0-2.0-14.0,1221408,2023/10/18 1:09,2023/10/18 1:10,2958,,Array,vocab_task,Array,,,0
,survey-multi-choice,17,62604,0.0-2.0-15.0,1221408,2023/10/18 1:09,2023/10/18 1:10,3071,,Array,vocab_task,Array,,,2
,survey-multi-choice,18,65582,0.0-2.0-16.0,1221408,2023/10/18 1:09,2023/10/18 1:10,2975,,Array,vocab_task,Array,,,1
,survey-multi-choice,19,68775,0.0-2.0-17.0,1221408,2023/10/18 1:09,2023/10/18 1:10,3190,,Array,vocab_task,Array,,,0
,survey-multi-choice,20,72473,0.0-2.0-18.0,1221408,2023/10/18 1:09,2023/10/18 1:10,3695,,Array,vocab_task,Array,,,1
,survey-multi-choice,21,74970,0.0-2.0-19.0,1221408,2023/10/18 1:09,2023/10/18 1:10,2495,,Array,vocab_task,Array,,,0
,html-keyboard-response,22,76320,0.0-3.0,1221408,2023/10/18 1:09,2023/10/18 1:10,1346,<p style='text-algin:left'>これで実験は終了です。お疲れ様でした。</p><p style='text-algin:left'>スペースキーを押したのち、画面を閉じてください。</p>, ,vocab_debrief,,,,0
1,fullscreen,0,8347,0.0-0.0,1210600,2023/10/18 15:12,2023/10/18 15:16,,,,,,,,0
,html-keyboard-response,1,15380,0.0-1.0,1210600,2023/10/18 15:12,2023/10/18 15:16,7032,<p style='text-algin:left'>これから、20個の単語についてその意味をおききします。</p><p style='text-algin:left'>語の意味を表すものとして、<u>最も適切なもの</u>をひとつ選択してください。</p><p><br><br></br><p style='text-algin:left'>準備ができたらスペーキーを押して、課題をはじめてください。</p>, ,vocab_instruction,,,,0
,survey-multi-choice,2,31477,0.0-2.0-0.0,1210600,2023/10/18 15:12,2023/10/18 15:16,16095,,Array,vocab_task,Array,,,2
,survey-multi-choice,3,49495,0.0-2.0-1.0,1210600,2023/10/18 15:12,2023/10/18 15:16,18016,,Array,vocab_task,Array,,,0
,survey-multi-choice,4,56002,0.0-2.0-2.0,1210600,2023/10/18 15:12,2023/10/18 15:16,6505,,Array,vocab_task,Array,,,2
,survey-multi-choice,5,66438,0.0-2.0-3.0,1210600,2023/10/18 15:12,2023/10/18 15:16,10433,,Array,vocab_task,Array,,,2
,survey-multi-choice,6,72895,0.0-2.0-4.0,1210600,2023/10/18 15:12,2023/10/18 15:16,6456,,Array,vocab_task,Array,,,2
,survey-multi-choice,7,78063,0.0-2.0-5.0,1210600,2023/10/18 15:12,2023/10/18 15:16,5166,,Array,vocab_task,Array,,,2
,survey-multi-choice,8,119966,0.0-2.0-6.0,1210600,2023/10/18 15:12,2023/10/18 15:16,41900,,Array,vocab_task,Array,,,1
,survey-multi-choice,9,130140,0.0-2.0-7.0,1210600,2023/10/18 15:12,2023/10/18 15:16,10172,,Array,vocab_task,Array,,,2
,survey-multi-choice,10,142405,0.0-2.0-8.0,1210600,2023/10/18 15:12,2023/10/18 15:16,12263,,Array,vocab_task,Array,,,1
,survey-multi-choice,11,152673,0.0-2.0-9.0,1210600,2023/10/18 15:12,2023/10/18 15:16,10266,,Array,vocab_task,Array,,,1
,survey-multi-choice,12,164791,0.0-2.0-10.0,1210600,2023/10/18 15:12,2023/10/18 15:16,12116,,Array,vocab_task,Array,,,0
,survey-multi-choice,13,177881,0.0-2.0-11.0,1210600,2023/10/18 15:12,2023/10/18 15:16,13088,,Array,vocab_task,Array,,,2
,survey-multi-choice,14,193495,0.0-2.0-12.0,1210600,2023/10/18 15:12,2023/10/18 15:16,15613,,Array,vocab_task,Array,,,2
,survey-multi-choice,15,202069,0.0-2.0-13.0,1210600,2023/10/18 15:12,2023/10/18 15:16,8572,,Array,vocab_task,Array,,,2
,survey-multi-choice,16,207398,0.0-2.0-14.0,1210600,2023/10/18 15:12,2023/10/18 15:16,5326,,Array,vocab_task,Array,,,2
,survey-multi-choice,17,226591,0.0-2.0-15.0,1210600,2023/10/18 15:12,2023/10/18 15:16,19192,,Array,vocab_task,Array,,,1
,survey-multi-choice,18,235592,0.0-2.0-16.0,1210600,2023/10/18 15:12,2023/10/18 15:16,8999,,Array,vocab_task,Array,,,1
,survey-multi-choice,19,242538,0.0-2.0-17.0,1210600,2023/10/18 15:12,2023/10/18 15:16,6944,,Array,vocab_task,Array,,,2
,survey-multi-choice,20,251446,0.0-2.0-18.0,1210600,2023/10/18 15:12,2023/10/18 15:16,8905,,Array,vocab_task,Array,,,0
,survey-multi-choice,21,262076,0.0-2.0-19.0,1210600,2023/10/18 15:12,2023/10/18 15:16,10629,,Array,vocab_task,Array,,,0
,html-keyboard-response,22,265770,0.0-3.0,1210600,2023/10/18 15:12,2023/10/18 15:16,3692,<p style='text-algin:left'>これで実験は終了です。お疲れ様でした。</p><p style='text-algin:left'>スペースキーを押したのち、画面を閉じてください。</p>, ,vocab_debrief,,,,0
1,fullscreen,0,4730,0.0-0.0,769122,2023/10/18 15:17,2023/10/18 15:21,,,,,,,,0
,html-keyboard-response,1,12664,0.0-1.0,769122,2023/10/18 15:17,2023/10/18 15:21,7933,<p style='text-algin:left'>これから、20個の単語についてその意味をおききします。</p><p style='text-algin:left'>語の意味を表すものとして、<u>最も適切なもの</u>をひとつ選択してください。</p><p><br><br></br><p style='text-algin:left'>準備ができたらスペーキーを押して、課題をはじめてください。</p>, ,vocab_instruction,,,,0
,survey-multi-choice,2,20134,0.0-2.0-0.0,769122,2023/10/18 15:17,2023/10/18 15:21,7468,,Array,vocab_task,Array,,,2
,survey-multi-choice,3,23953,0.0-2.0-1.0,769122,2023/10/18 15:17,2023/10/18 15:21,3816,,Array,vocab_task,Array,,,2
,survey-multi-choice,4,27469,0.0-2.0-2.0,769122,2023/10/18 15:17,2023/10/18 15:21,3514,,Array,vocab_task,Array,,,2
,survey-multi-choice,5,33561,0.0-2.0-3.0,769122,2023/10/18 15:17,2023/10/18 15:21,6089,,Array,vocab_task,Array,,,2
,survey-multi-choice,6,40219,0.0-2.0-4.0,769122,2023/10/18 15:17,2023/10/18 15:21,6656,,Array,vocab_task,Array,,,2
,survey-multi-choice,7,47441,0.0-2.0-5.0,769122,2023/10/18 15:17,2023/10/18 15:21,7220,,Array,vocab_task,Array,,,2
,survey-multi-choice,8,59973,0.0-2.0-6.0,769122,2023/10/18 15:17,2023/10/18 15:21,12530,,Array,vocab_task,Array,,,1
,survey-multi-choice,9,70538,0.0-2.0-7.0,769122,2023/10/18 15:17,2023/10/18 15:21,10563,,Array,vocab_task,Array,,,1
,survey-multi-choice,10,81737,0.0-2.0-8.0,769122,2023/10/18 15:17,2023/10/18 15:21,11196,,Array,vocab_task,Array,,,1
,survey-multi-choice,11,91502,0.0-2.0-9.0,769122,2023/10/18 15:17,2023/10/18 15:21,9763,,Array,vocab_task,Array,,,1
,survey-multi-choice,12,100891,0.0-2.0-10.0,769122,2023/10/18 15:17,2023/10/18 15:21,9385,,Array,vocab_task,Array,,,0
,survey-multi-choice,13,106656,0.0-2.0-11.0,769122,2023/10/18 15:17,2023/10/18 15:21,5763,,Array,vocab_task,Array,,,2
,survey-multi-choice,14,112845,0.0-2.0-12.0,769122,2023/10/18 15:17,2023/10/18 15:21,6186,,Array,vocab_task,Array,,,2
,survey-multi-choice,15,119010,0.0-2.0-13.0,769122,2023/10/18 15:17,2023/10/18 15:21,6163,,Array,vocab_task,Array,,,2
,survey-multi-choice,16,125519,0.0-2.0-14.0,769122,2023/10/18 15:17,2023/10/18 15:21,6503,,Array,vocab_task,Array,,,2
,survey-multi-choice,17,134203,0.0-2.0-15.0,769122,2023/10/18 15:17,2023/10/18 15:21,8682,,Array,vocab_task,Array,,,2
,survey-multi-choice,18,143413,0.0-2.0-16.0,769122,2023/10/18 15:17,2023/10/18 15:21,9208,,Array,vocab_task,Array,,,1
,survey-multi-choice,19,149138,0.0-2.0-17.0,769122,2023/10/18 15:17,2023/10/18 15:21,5723,,Array,vocab_task,Array,,,0
,survey-multi-choice,20,164192,0.0-2.0-18.0,769122,2023/10/18 15:17,2023/10/18 15:21,15048,,Array,vocab_task,Array,,,0
,survey-multi-choice,21,185382,0.0-2.0-19.0,769122,2023/10/18 15:17,2023/10/18 15:21,21181,,Array,vocab_task,Array,,,1
,html-keyboard-response,22,248511,0.0-3.0,769122,2023/10/18 15:17,2023/10/18 15:21,63128,<p style='text-algin:left'>これで実験は終了です。お疲れ様でした。</p><p style='text-algin:left'>スペースキーを押したのち、画面を閉じてください。</p>, ,vocab_debrief,,,,0
1,fullscreen,0,114561,0.0-0.0,963459,2023/10/18 15:17,2023/10/18 15:22,,,,,,,,0
,html-keyboard-response,1,119567,0.0-1.0,963459,2023/10/18 15:17,2023/10/18 15:22,5004,<p style='text-algin:left'>これから、20個の単語についてその意味をおききします。</p><p style='text-algin:left'>語の意味を表すものとして、<u>最も適切なもの</u>をひとつ選択してください。</p><p><br><br></br><p style='text-algin:left'>準備ができたらスペーキーを押して、課題をはじめてください。</p>, ,vocab_instruction,,,,0
,survey-multi-choice,2,129431,0.0-2.0-0.0,963459,2023/10/18 15:17,2023/10/18 15:22,9861,,Array,vocab_task,Array,,,2
,survey-multi-choice,3,141344,0.0-2.0-1.0,963459,2023/10/18 15:17,2023/10/18 15:22,11909,,Array,vocab_task,Array,,,1
,survey-multi-choice,4,148439,0.0-2.0-2.0,963459,2023/10/18 15:17,2023/10/18 15:22,7093,,Array,vocab_task,Array,,,2
,survey-multi-choice,5,160579,0.0-2.0-3.0,963459,2023/10/18 15:17,2023/10/18 15:22,12138,,Array,vocab_task,Array,,,2
,survey-multi-choice,6,168731,0.0-2.0-4.0,963459,2023/10/18 15:17,2023/10/18 15:22,8150,,Array,vocab_task,Array,,,1
,survey-multi-choice,7,177708,0.0-2.0-5.0,963459,2023/10/18 15:17,2023/10/18 15:22,8974,,Array,vocab_task,Array,,,2
,survey-multi-choice,8,190618,0.0-2.0-6.0,963459,2023/10/18 15:17,2023/10/18 15:22,12908,,Array,vocab_task,Array,,,0
,survey-multi-choice,9,201216,0.0-2.0-7.0,963459,2023/10/18 15:17,2023/10/18 15:22,10595,,Array,vocab_task,Array,,,0
,survey-multi-choice,10,215644,0.0-2.0-8.0,963459,2023/10/18 15:17,2023/10/18 15:22,14426,,Array,vocab_task,Array,,,0
,survey-multi-choice,11,227969,0.0-2.0-9.0,963459,2023/10/18 15:17,2023/10/18 15:22,12324,,Array,vocab_task,Array,,,1
,survey-multi-choice,12,235805,0.0-2.0-10.0,963459,2023/10/18 15:17,2023/10/18 15:22,7834,,Array,vocab_task,Array,,,1
,survey-multi-choice,13,244387,0.0-2.0-11.0,963459,2023/10/18 15:17,2023/10/18 15:22,8580,,Array,vocab_task,Array,,,2
,survey-multi-choice,14,251049,0.0-2.0-12.0,963459,2023/10/18 15:17,2023/10/18 15:22,6660,,Array,vocab_task,Array,,,2
,survey-multi-choice,15,259267,0.0-2.0-13.0,963459,2023/10/18 15:17,2023/10/18 15:22,8216,,Array,vocab_task,Array,,,0
,survey-multi-choice,16,264695,0.0-2.0-14.0,963459,2023/10/18 15:17,2023/10/18 15:22,5426,,Array,vocab_task,Array,,,0
,survey-multi-choice,17,272561,0.0-2.0-15.0,963459,2023/10/18 15:17,2023/10/18 15:22,7864,,Array,vocab_task,Array,,,2
,survey-multi-choice,18,280813,0.0-2.0-16.0,963459,2023/10/18 15:17,2023/10/18 15:22,8250,,Array,vocab_task,Array,,,2
,survey-multi-choice,19,287221,0.0-2.0-17.0,963459,2023/10/18 15:17,2023/10/18 15:22,6406,,Array,vocab_task,Array,,,1
,survey-multi-choice,20,299643,0.0-2.0-18.0,963459,2023/10/18 15:17,2023/10/18 15:22,12420,,Array,vocab_task,Array,,,2
,survey-multi-choice,21,306036,0.0-2.0-19.0,963459,2023/10/18 15:17,2023/10/18 15:22,6390,,Array,vocab_task,Array,,,0
,html-keyboard-response,22,308389,0.0-3.0,963459,2023/10/18 15:17,2023/10/18 15:22,2351,<p style='text-algin:left'>これで実験は終了です。お疲れ様でした。</p><p style='text-algin:left'>スペースキーを押したのち、画面を閉じてください。</p>, ,vocab_debrief,,,,0
1,fullscreen,0,2739,0.0-0.0,198468,2023/10/18 15:23,2023/10/18 15:26,,,,,,,,0
,html-keyboard-response,1,7805,0.0-1.0,198468,2023/10/18 15:23,2023/10/18 15:26,5063,<p style='text-algin:left'>これから、20個の単語についてその意味をおききします。</p><p style='text-algin:left'>語の意味を表すものとして、<u>最も適切なもの</u>をひとつ選択してください。</p><p><br><br></br><p style='text-algin:left'>準備ができたらスペーキーを押して、課題をはじめてください。</p>, ,vocab_instruction,,,,0
,survey-multi-choice,2,17098,0.0-2.0-0.0,198468,2023/10/18 15:23,2023/10/18 15:26,9291,,Array,vocab_task,Array,,,2
,survey-multi-choice,3,21321,0.0-2.0-1.0,198468,2023/10/18 15:23,2023/10/18 15:26,4218,,Array,vocab_task,Array,,,2
,survey-multi-choice,4,25986,0.0-2.0-2.0,198468,2023/10/18 15:23,2023/10/18 15:26,4660,,Array,vocab_task,Array,,,2
,survey-multi-choice,5,31147,0.0-2.0-3.0,198468,2023/10/18 15:23,2023/10/18 15:26,5157,,Array,vocab_task,Array,,,2
,survey-multi-choice,6,41993,0.0-2.0-4.0,198468,2023/10/18 15:23,2023/10/18 15:26,10840,,Array,vocab_task,Array,,,2
,survey-multi-choice,7,48875,0.0-2.0-5.0,198468,2023/10/18 15:23,2023/10/18 15:26,6877,,Array,vocab_task,Array,,,2
,survey-multi-choice,8,55492,0.0-2.0-6.0,198468,2023/10/18 15:23,2023/10/18 15:26,6612,,Array,vocab_task,Array,,,2
,survey-multi-choice,9,66805,0.0-2.0-7.0,198468,2023/10/18 15:23,2023/10/18 15:26,11309,,Array,vocab_task,Array,,,2
,survey-multi-choice,10,72160,0.0-2.0-8.0,198468,2023/10/18 15:23,2023/10/18 15:26,5350,,Array,vocab_task,Array,,,1
,survey-multi-choice,11,80813,0.0-2.0-9.0,198468,2023/10/18 15:23,2023/10/18 15:26,8649,,Array,vocab_task,Array,,,2
,survey-multi-choice,12,88410,0.0-2.0-10.0,198468,2023/10/18 15:23,2023/10/18 15:26,7593,,Array,vocab_task,Array,,,1
,survey-multi-choice,13,96504,0.0-2.0-11.0,198468,2023/10/18 15:23,2023/10/18 15:26,8090,,Array,vocab_task,Array,,,0
,survey-multi-choice,14,107944,0.0-2.0-12.0,198468,2023/10/18 15:23,2023/10/18 15:26,11435,,Array,vocab_task,Array,,,0
,survey-multi-choice,15,116011,0.0-2.0-13.0,198468,2023/10/18 15:23,2023/10/18 15:26,8062,,Array,vocab_task,Array,,,2
,survey-multi-choice,16,123964,0.0-2.0-14.0,198468,2023/10/18 15:23,2023/10/18 15:26,7948,,Array,vocab_task,Array,,,2
,survey-multi-choice,17,132786,0.0-2.0-15.0,198468,2023/10/18 15:23,2023/10/18 15:26,8818,,Array,vocab_task,Array,,,2
,survey-multi-choice,18,144065,0.0-2.0-16.0,198468,2023/10/18 15:23,2023/10/18 15:26,11275,,Array,vocab_task,Array,,,2
,survey-multi-choice,19,156995,0.0-2.0-17.0,198468,2023/10/18 15:23,2023/10/18 15:26,12926,,Array,vocab_task,Array,,,1
,survey-multi-choice,20,168208,0.0-2.0-18.0,198468,2023/10/18 15:23,2023/10/18 15:26,11208,,Array,vocab_task,Array,,,1
,survey-multi-choice,21,173500,0.0-2.0-19.0,198468,2023/10/18 15:23,2023/10/18 15:26,5289,,Array,vocab_task,Array,,,0
,html-keyboard-response,22,175655,0.0-3.0,198468,2023/10/18 15:23,2023/10/18 15:26,2151,<p style='text-algin:left'>これで実験は終了です。お疲れ様でした。</p><p style='text-algin:left'>スペースキーを押したのち、画面を閉じてください。</p>, ,vocab_debrief,,,,0
1,fullscreen,0,5427,0.0-0.0,59422,2023/10/18 15:24,2023/10/18 15:27,,,,,,,,0
,html-keyboard-response,1,12718,0.0-1.0,59422,2023/10/18 15:24,2023/10/18 15:27,7287,<p style='text-algin:left'>これから、20個の単語についてその意味をおききします。</p><p style='text-algin:left'>語の意味を表すものとして、<u>最も適切なもの</u>をひとつ選択してください。</p><p><br><br></br><p style='text-algin:left'>準備ができたらスペーキーを押して、課題をはじめてください。</p>, ,vocab_instruction,,,,0
,survey-multi-choice,2,19045,0.0-2.0-0.0,59422,2023/10/18 15:24,2023/10/18 15:27,6321,,Array,vocab_task,Array,,,2
,survey-multi-choice,3,26391,0.0-2.0-1.0,59422,2023/10/18 15:24,2023/10/18 15:27,7338,,Array,vocab_task,Array,,,2
,survey-multi-choice,4,30659,0.0-2.0-2.0,59422,2023/10/18 15:24,2023/10/18 15:27,4260,,Array,vocab_task,Array,,,2
,survey-multi-choice,5,36421,0.0-2.0-3.0,59422,2023/10/18 15:24,2023/10/18 15:27,5752,,Array,vocab_task,Array,,,0
,survey-multi-choice,6,41082,0.0-2.0-4.0,59422,2023/10/18 15:24,2023/10/18 15:27,4653,,Array,vocab_task,Array,,,2
,survey-multi-choice,7,44606,0.0-2.0-5.0,59422,2023/10/18 15:24,2023/10/18 15:27,3516,,Array,vocab_task,Array,,,2
,survey-multi-choice,8,49882,0.0-2.0-6.0,59422,2023/10/18 15:24,2023/10/18 15:27,5268,,Array,vocab_task,Array,,,2
,survey-multi-choice,9,66785,0.0-2.0-7.0,59422,2023/10/18 15:24,2023/10/18 15:27,16895,,Array,vocab_task,Array,,,2
,survey-multi-choice,10,73947,0.0-2.0-8.0,59422,2023/10/18 15:24,2023/10/18 15:27,7154,,Array,vocab_task,Array,,,1
,survey-multi-choice,11,80890,0.0-2.0-9.0,59422,2023/10/18 15:24,2023/10/18 15:27,6937,,Array,vocab_task,Array,,,2
,survey-multi-choice,12,89822,0.0-2.0-10.0,59422,2023/10/18 15:24,2023/10/18 15:27,8925,,Array,vocab_task,Array,,,2
,survey-multi-choice,13,99728,0.0-2.0-11.0,59422,2023/10/18 15:24,2023/10/18 15:27,9897,,Array,vocab_task,Array,,,0
,survey-multi-choice,14,104403,0.0-2.0-12.0,59422,2023/10/18 15:24,2023/10/18 15:27,4666,,Array,vocab_task,Array,,,2
,survey-multi-choice,15,109599,0.0-2.0-13.0,59422,2023/10/18 15:24,2023/10/18 15:27,5189,,Array,vocab_task,Array,,,1
,survey-multi-choice,16,135418,0.0-2.0-14.0,59422,2023/10/18 15:24,2023/10/18 15:27,25811,,Array,vocab_task,Array,,,1
,survey-multi-choice,17,149870,0.0-2.0-15.0,59422,2023/10/18 15:24,2023/10/18 15:27,14445,,Array,vocab_task,Array,,,0
,survey-multi-choice,18,154621,0.0-2.0-16.0,59422,2023/10/18 15:24,2023/10/18 15:27,4743,,Array,vocab_task,Array,,,2
,survey-multi-choice,19,162672,0.0-2.0-17.0,59422,2023/10/18 15:24,2023/10/18 15:27,8044,,Array,vocab_task,Array,,,1
,survey-multi-choice,20,170763,0.0-2.0-18.0,59422,2023/10/18 15:24,2023/10/18 15:27,8081,,Array,vocab_task,Array,,,2
,survey-multi-choice,21,176793,0.0-2.0-19.0,59422,2023/10/18 15:24,2023/10/18 15:27,6023,,Array,vocab_task,Array,,,0
,html-keyboard-response,22,180557,0.0-3.0,59422,2023/10/18 15:24,2023/10/18 15:27,3757,<p style='text-algin:left'>これで実験は終了です。お疲れ様でした。</p><p style='text-algin:left'>スペースキーを押したのち、画面を閉じてください。</p>, ,vocab_debrief,,,,0
1,fullscreen,0,6079,0.0-0.0,3675780,2023/10/18 15:17,2023/10/18 15:27,,,,,,,,0
,html-keyboard-response,1,17341,0.0-1.0,3675780,2023/10/18 15:17,2023/10/18 15:27,11260,<p style='text-algin:left'>これから、20個の単語についてその意味をおききします。</p><p style='text-algin:left'>語の意味を表すものとして、<u>最も適切なもの</u>をひとつ選択してください。</p><p><br><br></br><p style='text-algin:left'>準備ができたらスペーキーを押して、課題をはじめてください。</p>, ,vocab_instruction,,,,0
,survey-multi-choice,2,31744,0.0-2.0-0.0,3675780,2023/10/18 15:17,2023/10/18 15:27,14402,,Array,vocab_task,Array,,,2
,survey-multi-choice,3,57409,0.0-2.0-1.0,3675780,2023/10/18 15:17,2023/10/18 15:27,25663,,Array,vocab_task,Array,,,0
,survey-multi-choice,4,63700,0.0-2.0-2.0,3675780,2023/10/18 15:17,2023/10/18 15:27,6289,,Array,vocab_task,Array,,,2
,survey-multi-choice,5,72820,0.0-2.0-3.0,3675780,2023/10/18 15:17,2023/10/18 15:27,9117,,Array,vocab_task,Array,,,2
,survey-multi-choice,6,121290,0.0-2.0-4.0,3675780,2023/10/18 15:17,2023/10/18 15:27,48469,,Array,vocab_task,Array,,,2
,survey-multi-choice,7,139032,0.0-2.0-5.0,3675780,2023/10/18 15:17,2023/10/18 15:27,17740,,Array,vocab_task,Array,,,2
,survey-multi-choice,8,154736,0.0-2.0-6.0,3675780,2023/10/18 15:17,2023/10/18 15:27,15703,,Array,vocab_task,Array,,,2
,survey-multi-choice,9,176149,0.0-2.0-7.0,3675780,2023/10/18 15:17,2023/10/18 15:27,21410,,Array,vocab_task,Array,,,2
,survey-multi-choice,10,194265,0.0-2.0-8.0,3675780,2023/10/18 15:17,2023/10/18 15:27,18115,,Array,vocab_task,Array,,,2
,survey-multi-choice,11,212784,0.0-2.0-9.0,3675780,2023/10/18 15:17,2023/10/18 15:27,18518,,Array,vocab_task,Array,,,2
,survey-multi-choice,12,275943,0.0-2.0-10.0,3675780,2023/10/18 15:17,2023/10/18 15:27,63157,,Array,vocab_task,Array,,,0
,survey-multi-choice,13,303290,0.0-2.0-11.0,3675780,2023/10/18 15:17,2023/10/18 15:27,27345,,Array,vocab_task,Array,,,2
,survey-multi-choice,14,334644,0.0-2.0-12.0,3675780,2023/10/18 15:17,2023/10/18 15:27,31351,,Array,vocab_task,Array,,,2
,survey-multi-choice,15,356242,0.0-2.0-13.0,3675780,2023/10/18 15:17,2023/10/18 15:27,21597,,Array,vocab_task,Array,,,2
,survey-multi-choice,16,395873,0.0-2.0-14.0,3675780,2023/10/18 15:17,2023/10/18 15:27,39629,,Array,vocab_task,Array,,,1
,survey-multi-choice,17,426122,0.0-2.0-15.0,3675780,2023/10/18 15:17,2023/10/18 15:27,30248,,Array,vocab_task,Array,,,0
,survey-multi-choice,18,468730,0.0-2.0-16.0,3675780,2023/10/18 15:17,2023/10/18 15:27,42608,,Array,vocab_task,Array,,,0
,survey-multi-choice,19,535684,0.0-2.0-17.0,3675780,2023/10/18 15:17,2023/10/18 15:27,66953,,Array,vocab_task,Array,,,2
,survey-multi-choice,20,562007,0.0-2.0-18.0,3675780,2023/10/18 15:17,2023/10/18 15:27,26321,,Array,vocab_task,Array,,,0
,survey-multi-choice,21,581118,0.0-2.0-19.0,3675780,2023/10/18 15:17,2023/10/18 15:27,19108,,Array,vocab_task,Array,,,2
,html-keyboard-response,22,584127,0.0-3.0,3675780,2023/10/18 15:17,2023/10/18 15:27,3008,<p style='text-algin:left'>これで実験は終了です。お疲れ様でした。</p><p style='text-algin:left'>スペースキーを押したのち、画面を閉じてください。</p>, ,vocab_debrief,,,,0
1,fullscreen,0,2729,0.0-0.0,4550563,2023/10/18 15:26,2023/10/18 15:29,,,,,,,,0
,html-keyboard-response,1,7367,0.0-1.0,4550563,2023/10/18 15:26,2023/10/18 15:29,4636,<p style='text-algin:left'>これから、20個の単語についてその意味をおききします。</p><p style='text-algin:left'>語の意味を表すものとして、<u>最も適切なもの</u>をひとつ選択してください。</p><p><br><br></br><p style='text-algin:left'>準備ができたらスペーキーを押して、課題をはじめてください。</p>, ,vocab_instruction,,,,0
,survey-multi-choice,2,13810,0.0-2.0-0.0,4550563,2023/10/18 15:26,2023/10/18 15:29,6441,,Array,vocab_task,Array,,,2
,survey-multi-choice,3,21125,0.0-2.0-1.0,4550563,2023/10/18 15:26,2023/10/18 15:29,7311,,Array,vocab_task,Array,,,1
,survey-multi-choice,4,25391,0.0-2.0-2.0,4550563,2023/10/18 15:26,2023/10/18 15:29,4262,,Array,vocab_task,Array,,,2
,survey-multi-choice,5,30356,0.0-2.0-3.0,4550563,2023/10/18 15:26,2023/10/18 15:29,4960,,Array,vocab_task,Array,,,1
,survey-multi-choice,6,35648,0.0-2.0-4.0,4550563,2023/10/18 15:26,2023/10/18 15:29,5288,,Array,vocab_task,Array,,,0
,survey-multi-choice,7,39402,0.0-2.0-5.0,4550563,2023/10/18 15:26,2023/10/18 15:29,3750,,Array,vocab_task,Array,,,2
,survey-multi-choice,8,51677,0.0-2.0-6.0,4550563,2023/10/18 15:26,2023/10/18 15:29,12270,,Array,vocab_task,Array,,,2
,survey-multi-choice,9,57586,0.0-2.0-7.0,4550563,2023/10/18 15:26,2023/10/18 15:29,5905,,Array,vocab_task,Array,,,1
,survey-multi-choice,10,64256,0.0-2.0-8.0,4550563,2023/10/18 15:26,2023/10/18 15:29,6663,,Array,vocab_task,Array,,,0
,survey-multi-choice,11,67536,0.0-2.0-9.0,4550563,2023/10/18 15:26,2023/10/18 15:29,3276,,Array,vocab_task,Array,,,2
,survey-multi-choice,12,137160,0.0-2.0-10.0,4550563,2023/10/18 15:26,2023/10/18 15:29,69619,,Array,vocab_task,Array,,,2
,survey-multi-choice,13,143909,0.0-2.0-11.0,4550563,2023/10/18 15:26,2023/10/18 15:29,6744,,Array,vocab_task,Array,,,1
,survey-multi-choice,14,149374,0.0-2.0-12.0,4550563,2023/10/18 15:26,2023/10/18 15:29,5462,,Array,vocab_task,Array,,,1
,survey-multi-choice,15,153186,0.0-2.0-13.0,4550563,2023/10/18 15:26,2023/10/18 15:29,3808,,Array,vocab_task,Array,,,2
,survey-multi-choice,16,155758,0.0-2.0-14.0,4550563,2023/10/18 15:26,2023/10/18 15:29,2569,,Array,vocab_task,Array,,,2
,survey-multi-choice,17,160607,0.0-2.0-15.0,4550563,2023/10/18 15:26,2023/10/18 15:29,4846,,Array,vocab_task,Array,,,2
,survey-multi-choice,18,167121,0.0-2.0-16.0,4550563,2023/10/18 15:26,2023/10/18 15:29,6510,,Array,vocab_task,Array,,,2
,survey-multi-choice,19,171435,0.0-2.0-17.0,4550563,2023/10/18 15:26,2023/10/18 15:29,4309,,Array,vocab_task,Array,,,0
,survey-multi-choice,20,174933,0.0-2.0-18.0,4550563,2023/10/18 15:26,2023/10/18 15:29,3495,,Array,vocab_task,Array,,,0
,survey-multi-choice,21,177766,0.0-2.0-19.0,4550563,2023/10/18 15:26,2023/10/18 15:29,2829,,Array,vocab_task,Array,,,0
,html-keyboard-response,22,179222,0.0-3.0,4550563,2023/10/18 15:26,2023/10/18 15:29,1452,<p style='text-algin:left'>これで実験は終了です。お疲れ様でした。</p><p style='text-algin:left'>スペースキーを押したのち、画面を閉じてください。</p>, ,vocab_debrief,,,,0
1,fullscreen,0,15126,0.0-0.0,148287,2023/10/18 15:27,2023/10/18 15:29,,,,,,,,0
,html-keyboard-response,1,27644,0.0-1.0,148287,2023/10/18 15:27,2023/10/18 15:29,12514,<p style='text-algin:left'>これから、20個の単語についてその意味をおききします。</p><p style='text-algin:left'>語の意味を表すものとして、<u>最も適切なもの</u>をひとつ選択してください。</p><p><br><br></br><p style='text-algin:left'>準備ができたらスペーキーを押して、課題をはじめてください。</p>, ,vocab_instruction,,,,0
,survey-multi-choice,2,35357,0.0-2.0-0.0,148287,2023/10/18 15:27,2023/10/18 15:29,7710,,Array,vocab_task,Array,,,2
,survey-multi-choice,3,37935,0.0-2.0-1.0,148287,2023/10/18 15:27,2023/10/18 15:29,2577,,Array,vocab_task,Array,,,2
,survey-multi-choice,4,42397,0.0-2.0-2.0,148287,2023/10/18 15:27,2023/10/18 15:29,4461,,Array,vocab_task,Array,,,2
,survey-multi-choice,5,48569,0.0-2.0-3.0,148287,2023/10/18 15:27,2023/10/18 15:29,6170,,Array,vocab_task,Array,,,2
,survey-multi-choice,6,50675,0.0-2.0-4.0,148287,2023/10/18 15:27,2023/10/18 15:29,2106,,Array,vocab_task,Array,,,2
,survey-multi-choice,7,54094,0.0-2.0-5.0,148287,2023/10/18 15:27,2023/10/18 15:29,3419,,Array,vocab_task,Array,,,2
,survey-multi-choice,8,59033,0.0-2.0-6.0,148287,2023/10/18 15:27,2023/10/18 15:29,4939,,Array,vocab_task,Array,,,2
,survey-multi-choice,9,65289,0.0-2.0-7.0,148287,2023/10/18 15:27,2023/10/18 15:29,6254,,Array,vocab_task,Array,,,1
,survey-multi-choice,10,71023,0.0-2.0-8.0,148287,2023/10/18 15:27,2023/10/18 15:29,5733,,Array,vocab_task,Array,,,2
,survey-multi-choice,11,74457,0.0-2.0-9.0,148287,2023/10/18 15:27,2023/10/18 15:29,3433,,Array,vocab_task,Array,,,1
,survey-multi-choice,12,77365,0.0-2.0-10.0,148287,2023/10/18 15:27,2023/10/18 15:29,2905,,Array,vocab_task,Array,,,0
,survey-multi-choice,13,80975,0.0-2.0-11.0,148287,2023/10/18 15:27,2023/10/18 15:29,3609,,Array,vocab_task,Array,,,0
,survey-multi-choice,14,85023,0.0-2.0-12.0,148287,2023/10/18 15:27,2023/10/18 15:29,4046,,Array,vocab_task,Array,,,0
,survey-multi-choice,15,88118,0.0-2.0-13.0,148287,2023/10/18 15:27,2023/10/18 15:29,3095,,Array,vocab_task,Array,,,2
,survey-multi-choice,16,90873,0.0-2.0-14.0,148287,2023/10/18 15:27,2023/10/18 15:29,2755,,Array,vocab_task,Array,,,2
,survey-multi-choice,17,96678,0.0-2.0-15.0,148287,2023/10/18 15:27,2023/10/18 15:29,5803,,Array,vocab_task,Array,,,2
,survey-multi-choice,18,99811,0.0-2.0-16.0,148287,2023/10/18 15:27,2023/10/18 15:29,3133,,Array,vocab_task,Array,,,0
,survey-multi-choice,19,103584,0.0-2.0-17.0,148287,2023/10/18 15:27,2023/10/18 15:29,3772,,Array,vocab_task,Array,,,0
,survey-multi-choice,20,106757,0.0-2.0-18.0,148287,2023/10/18 15:27,2023/10/18 15:29,3172,,Array,vocab_task,Array,,,1
,survey-multi-choice,21,113210,0.0-2.0-19.0,148287,2023/10/18 15:27,2023/10/18 15:29,6452,,Array,vocab_task,Array,,,0
,html-keyboard-response,22,115962,0.0-3.0,148287,2023/10/18 15:27,2023/10/18 15:29,2752,<p style='text-algin:left'>これで実験は終了です。お疲れ様でした。</p><p style='text-algin:left'>スペースキーを押したのち、画面を閉じてください。</p>, ,vocab_debrief,,,,0
1,fullscreen,0,4088,0.0-0.0,1228585,2023/10/18 15:27,2023/10/18 15:29,,,,,,,,0
,html-keyboard-response,1,8731,0.0-1.0,1228585,2023/10/18 15:27,2023/10/18 15:29,4636,<p style='text-algin:left'>これから、20個の単語についてその意味をおききします。</p><p style='text-algin:left'>語の意味を表すものとして、<u>最も適切なもの</u>をひとつ選択してください。</p><p><br><br></br><p style='text-algin:left'>準備ができたらスペーキーを押して、課題をはじめてください。</p>, ,vocab_instruction,,,,0
,survey-multi-choice,2,13665,0.0-2.0-0.0,1228585,2023/10/18 15:27,2023/10/18 15:29,4928,,Array,vocab_task,Array,,,0
,survey-multi-choice,3,17825,0.0-2.0-1.0,1228585,2023/10/18 15:27,2023/10/18 15:29,4156,,Array,vocab_task,Array,,,2
,survey-multi-choice,4,22961,0.0-2.0-2.0,1228585,2023/10/18 15:27,2023/10/18 15:29,5132,,Array,vocab_task,Array,,,2
,survey-multi-choice,5,29209,0.0-2.0-3.0,1228585,2023/10/18 15:27,2023/10/18 15:29,6244,,Array,vocab_task,Array,,,2
,survey-multi-choice,6,34937,0.0-2.0-4.0,1228585,2023/10/18 15:27,2023/10/18 15:29,5725,,Array,vocab_task,Array,,,1
,survey-multi-choice,7,40701,0.0-2.0-5.0,1228585,2023/10/18 15:27,2023/10/18 15:29,5761,,Array,vocab_task,Array,,,2
,survey-multi-choice,8,47157,0.0-2.0-6.0,1228585,2023/10/18 15:27,2023/10/18 15:29,6453,,Array,vocab_task,Array,,,1
,survey-multi-choice,9,53104,0.0-2.0-7.0,1228585,2023/10/18 15:27,2023/10/18 15:29,5944,,Array,vocab_task,Array,,,2
,survey-multi-choice,10,61768,0.0-2.0-8.0,1228585,2023/10/18 15:27,2023/10/18 15:29,8660,,Array,vocab_task,Array,,,2
,survey-multi-choice,11,68197,0.0-2.0-9.0,1228585,2023/10/18 15:27,2023/10/18 15:29,6425,,Array,vocab_task,Array,,,2
,survey-multi-choice,12,75281,0.0-2.0-10.0,1228585,2023/10/18 15:27,2023/10/18 15:29,7080,,Array,vocab_task,Array,,,1
,survey-multi-choice,13,78729,0.0-2.0-11.0,1228585,2023/10/18 15:27,2023/10/18 15:29,3445,,Array,vocab_task,Array,,,2
,survey-multi-choice,14,84317,0.0-2.0-12.0,1228585,2023/10/18 15:27,2023/10/18 15:29,5585,,Array,vocab_task,Array,,,2
,survey-multi-choice,15,89457,0.0-2.0-13.0,1228585,2023/10/18 15:27,2023/10/18 15:29,5137,,Array,vocab_task,Array,,,2
,survey-multi-choice,16,95281,0.0-2.0-14.0,1228585,2023/10/18 15:27,2023/10/18 15:29,5821,,Array,vocab_task,Array,,,1
,survey-multi-choice,17,101129,0.0-2.0-15.0,1228585,2023/10/18 15:27,2023/10/18 15:29,5844,,Array,vocab_task,Array,,,2
,survey-multi-choice,18,107477,0.0-2.0-16.0,1228585,2023/10/18 15:27,2023/10/18 15:29,6344,,Array,vocab_task,Array,,,0
,survey-multi-choice,19,115829,0.0-2.0-17.0,1228585,2023/10/18 15:27,2023/10/18 15:29,8349,,Array,vocab_task,Array,,,2
,survey-multi-choice,20,122097,0.0-2.0-18.0,1228585,2023/10/18 15:27,2023/10/18 15:29,6265,,Array,vocab_task,Array,,,2
,survey-multi-choice,21,127921,0.0-2.0-19.0,1228585,2023/10/18 15:27,2023/10/18 15:29,5820,,Array,vocab_task,Array,,,0
,html-keyboard-response,22,131470,0.0-3.0,1228585,2023/10/18 15:27,2023/10/18 15:29,3546,<p style='text-algin:left'>これで実験は終了です。お疲れ様でした。</p><p style='text-algin:left'>スペースキーを押したのち、画面を閉じてください。</p>, ,vocab_debrief,,,,0
1,fullscreen,0,2524,0.0-0.0,1445649,2023/10/18 15:28,2023/10/18 15:30,,,,,,,,0
,html-keyboard-response,1,6595,0.0-1.0,1445649,2023/10/18 15:28,2023/10/18 15:30,4067,<p style='text-algin:left'>これから、20個の単語についてその意味をおききします。</p><p style='text-algin:left'>語の意味を表すものとして、<u>最も適切なもの</u>をひとつ選択してください。</p><p><br><br></br><p style='text-algin:left'>準備ができたらスペーキーを押して、課題をはじめてください。</p>, ,vocab_instruction,,,,0
,survey-multi-choice,2,11665,0.0-2.0-0.0,1445649,2023/10/18 15:28,2023/10/18 15:30,5067,,Array,vocab_task,Array,,,2
,survey-multi-choice,3,19369,0.0-2.0-1.0,1445649,2023/10/18 15:28,2023/10/18 15:30,7701,,Array,vocab_task,Array,,,1
,survey-multi-choice,4,22617,0.0-2.0-2.0,1445649,2023/10/18 15:28,2023/10/18 15:30,3245,,Array,vocab_task,Array,,,2
,survey-multi-choice,5,26121,0.0-2.0-3.0,1445649,2023/10/18 15:28,2023/10/18 15:30,3501,,Array,vocab_task,Array,,,0
,survey-multi-choice,6,31185,0.0-2.0-4.0,1445649,2023/10/18 15:28,2023/10/18 15:30,5061,,Array,vocab_task,Array,,,2
,survey-multi-choice,7,33841,0.0-2.0-5.0,1445649,2023/10/18 15:28,2023/10/18 15:30,2653,,Array,vocab_task,Array,,,2
,survey-multi-choice,8,39961,0.0-2.0-6.0,1445649,2023/10/18 15:28,2023/10/18 15:30,6117,,Array,vocab_task,Array,,,2
,survey-multi-choice,9,46041,0.0-2.0-7.0,1445649,2023/10/18 15:28,2023/10/18 15:30,6077,,Array,vocab_task,Array,,,2
,survey-multi-choice,10,54369,0.0-2.0-8.0,1445649,2023/10/18 15:28,2023/10/18 15:30,8325,,Array,vocab_task,Array,,,0
,survey-multi-choice,11,59905,0.0-2.0-9.0,1445649,2023/10/18 15:28,2023/10/18 15:30,5534,,Array,vocab_task,Array,,,2
,survey-multi-choice,12,66201,0.0-2.0-10.0,1445649,2023/10/18 15:28,2023/10/18 15:30,6293,,Array,vocab_task,Array,,,0
,survey-multi-choice,13,69849,0.0-2.0-11.0,1445649,2023/10/18 15:28,2023/10/18 15:30,3645,,Array,vocab_task,Array,,,2
,survey-multi-choice,14,78873,0.0-2.0-12.0,1445649,2023/10/18 15:28,2023/10/18 15:30,9021,,Array,vocab_task,Array,,,1
,survey-multi-choice,15,86169,0.0-2.0-13.0,1445649,2023/10/18 15:28,2023/10/18 15:30,7293,,Array,vocab_task,Array,,,2
,survey-multi-choice,16,90953,0.0-2.0-14.0,1445649,2023/10/18 15:28,2023/10/18 15:30,4782,,Array,vocab_task,Array,,,2
,survey-multi-choice,17,95769,0.0-2.0-15.0,1445649,2023/10/18 15:28,2023/10/18 15:30,4813,,Array,vocab_task,Array,,,2
,survey-multi-choice,18,105825,0.0-2.0-16.0,1445649,2023/10/18 15:28,2023/10/18 15:30,10053,,Array,vocab_task,Array,,,0
,survey-multi-choice,19,113521,0.0-2.0-17.0,1445649,2023/10/18 15:28,2023/10/18 15:30,7693,,Array,vocab_task,Array,,,2
,survey-multi-choice,20,120081,0.0-2.0-18.0,1445649,2023/10/18 15:28,2023/10/18 15:30,6558,,Array,vocab_task,Array,,,0
,survey-multi-choice,21,124233,0.0-2.0-19.0,1445649,2023/10/18 15:28,2023/10/18 15:30,4149,,Array,vocab_task,Array,,,0
,html-keyboard-response,22,126211,0.0-3.0,1445649,2023/10/18 15:28,2023/10/18 15:30,1976,<p style='text-algin:left'>これで実験は終了です。お疲れ様でした。</p><p style='text-algin:left'>スペースキーを押したのち、画面を閉じてください。</p>, ,vocab_debrief,,,,0
1,fullscreen,0,3954,0.0-0.0,517742,2023/10/18 15:29,2023/10/18 15:31,,,,,,,,0
,html-keyboard-response,1,10763,0.0-1.0,517742,2023/10/18 15:29,2023/10/18 15:31,6807,<p style='text-algin:left'>これから、20個の単語についてその意味をおききします。</p><p style='text-algin:left'>語の意味を表すものとして、<u>最も適切なもの</u>をひとつ選択してください。</p><p><br><br></br><p style='text-algin:left'>準備ができたらスペーキーを押して、課題をはじめてください。</p>, ,vocab_instruction,,,,0
,survey-multi-choice,2,15809,0.0-2.0-0.0,517742,2023/10/18 15:29,2023/10/18 15:31,5042,,Array,vocab_task,Array,,,1
,survey-multi-choice,3,20406,0.0-2.0-1.0,517742,2023/10/18 15:29,2023/10/18 15:31,4584,,Array,vocab_task,Array,,,2
,survey-multi-choice,4,23309,0.0-2.0-2.0,517742,2023/10/18 15:29,2023/10/18 15:31,2896,,Array,vocab_task,Array,,,2
,survey-multi-choice,5,27243,0.0-2.0-3.0,517742,2023/10/18 15:29,2023/10/18 15:31,3926,,Array,vocab_task,Array,,,1
,survey-multi-choice,6,33276,0.0-2.0-4.0,517742,2023/10/18 15:29,2023/10/18 15:31,6019,,Array,vocab_task,Array,,,0
,survey-multi-choice,7,37371,0.0-2.0-5.0,517742,2023/10/18 15:29,2023/10/18 15:31,4089,,Array,vocab_task,Array,,,2
,survey-multi-choice,8,41128,0.0-2.0-6.0,517742,2023/10/18 15:29,2023/10/18 15:31,3750,,Array,vocab_task,Array,,,2
,survey-multi-choice,9,44776,0.0-2.0-7.0,517742,2023/10/18 15:29,2023/10/18 15:31,3641,,Array,vocab_task,Array,,,2
,survey-multi-choice,10,52700,0.0-2.0-8.0,517742,2023/10/18 15:29,2023/10/18 15:31,7917,,Array,vocab_task,Array,,,0
,survey-multi-choice,11,56790,0.0-2.0-9.0,517742,2023/10/18 15:29,2023/10/18 15:31,4081,,Array,vocab_task,Array,,,0
,survey-multi-choice,12,60006,0.0-2.0-10.0,517742,2023/10/18 15:29,2023/10/18 15:31,3209,,Array,vocab_task,Array,,,1
,survey-multi-choice,13,64049,0.0-2.0-11.0,517742,2023/10/18 15:29,2023/10/18 15:31,4036,,Array,vocab_task,Array,,,1
,survey-multi-choice,14,71856,0.0-2.0-12.0,517742,2023/10/18 15:29,2023/10/18 15:31,7799,,Array,vocab_task,Array,,,2
,survey-multi-choice,15,75884,0.0-2.0-13.0,517742,2023/10/18 15:29,2023/10/18 15:31,4021,,Array,vocab_task,Array,,,2
,survey-multi-choice,16,80218,0.0-2.0-14.0,517742,2023/10/18 15:29,2023/10/18 15:31,4326,,Array,vocab_task,Array,,,2
,survey-multi-choice,17,86915,0.0-2.0-15.0,517742,2023/10/18 15:29,2023/10/18 15:31,6691,,Array,vocab_task,Array,,,2
,survey-multi-choice,18,91295,0.0-2.0-16.0,517742,2023/10/18 15:29,2023/10/18 15:31,4373,,Array,vocab_task,Array,,,0
,survey-multi-choice,19,96666,0.0-2.0-17.0,517742,2023/10/18 15:29,2023/10/18 15:31,5364,,Array,vocab_task,Array,,,1
,survey-multi-choice,20,103753,0.0-2.0-18.0,517742,2023/10/18 15:29,2023/10/18 15:31,7078,,Array,vocab_task,Array,,,1
,survey-multi-choice,21,108682,0.0-2.0-19.0,517742,2023/10/18 15:29,2023/10/18 15:31,4921,,Array,vocab_task,Array,,,0
,html-keyboard-response,22,110947,0.0-3.0,517742,2023/10/18 15:29,2023/10/18 15:31,2257,<p style='text-algin:left'>これで実験は終了です。お疲れ様でした。</p><p style='text-algin:left'>スペースキーを押したのち、画面を閉じてください。</p>, ,vocab_debrief,,,,0
1,fullscreen,0,3466,0.0-0.0,4790284,2023/10/18 15:29,2023/10/18 15:31,,,,,,,,0
,html-keyboard-response,1,14106,0.0-1.0,4790284,2023/10/18 15:29,2023/10/18 15:31,10633,<p style='text-algin:left'>これから、20個の単語についてその意味をおききします。</p><p style='text-algin:left'>語の意味を表すものとして、<u>最も適切なもの</u>をひとつ選択してください。</p><p><br><br></br><p style='text-algin:left'>準備ができたらスペーキーを押して、課題をはじめてください。</p>, ,vocab_instruction,,,,0
,survey-multi-choice,2,21568,0.0-2.0-0.0,4790284,2023/10/18 15:29,2023/10/18 15:31,7461,,Array,vocab_task,Array,,,0
,survey-multi-choice,3,25409,0.0-2.0-1.0,4790284,2023/10/18 15:29,2023/10/18 15:31,3838,,Array,vocab_task,Array,,,2
,survey-multi-choice,4,31902,0.0-2.0-2.0,4790284,2023/10/18 15:29,2023/10/18 15:31,6490,,Array,vocab_task,Array,,,2
,survey-multi-choice,5,36542,0.0-2.0-3.0,4790284,2023/10/18 15:29,2023/10/18 15:31,4637,,Array,vocab_task,Array,,,2
,survey-multi-choice,6,42484,0.0-2.0-4.0,4790284,2023/10/18 15:29,2023/10/18 15:31,5938,,Array,vocab_task,Array,,,2
,survey-multi-choice,7,48888,0.0-2.0-5.0,4790284,2023/10/18 15:29,2023/10/18 15:31,6402,,Array,vocab_task,Array,,,2
,survey-multi-choice,8,55904,0.0-2.0-6.0,4790284,2023/10/18 15:29,2023/10/18 15:31,7013,,Array,vocab_task,Array,,,1
,survey-multi-choice,9,67748,0.0-2.0-7.0,4790284,2023/10/18 15:29,2023/10/18 15:31,11841,,Array,vocab_task,Array,,,2
,survey-multi-choice,10,83665,0.0-2.0-8.0,4790284,2023/10/18 15:29,2023/10/18 15:31,15914,,Array,vocab_task,Array,,,1
,survey-multi-choice,11,89528,0.0-2.0-9.0,4790284,2023/10/18 15:29,2023/10/18 15:31,5860,,Array,vocab_task,Array,,,2
,survey-multi-choice,12,100740,0.0-2.0-10.0,4790284,2023/10/18 15:29,2023/10/18 15:31,11209,,Array,vocab_task,Array,,,1
,survey-multi-choice,13,106252,0.0-2.0-11.0,4790284,2023/10/18 15:29,2023/10/18 15:31,5510,,Array,vocab_task,Array,,,2
,survey-multi-choice,14,111750,0.0-2.0-12.0,4790284,2023/10/18 15:29,2023/10/18 15:31,5495,,Array,vocab_task,Array,,,2
,survey-multi-choice,15,118611,0.0-2.0-13.0,4790284,2023/10/18 15:29,2023/10/18 15:31,6857,,Array,vocab_task,Array,,,2
,survey-multi-choice,16,132742,0.0-2.0-14.0,4790284,2023/10/18 15:29,2023/10/18 15:31,14128,,Array,vocab_task,Array,,,1
,survey-multi-choice,17,139650,0.0-2.0-15.0,4790284,2023/10/18 15:29,2023/10/18 15:31,6906,,Array,vocab_task,Array,,,2
,survey-multi-choice,18,147083,0.0-2.0-16.0,4790284,2023/10/18 15:29,2023/10/18 15:31,7430,,Array,vocab_task,Array,,,2
,survey-multi-choice,19,156338,0.0-2.0-17.0,4790284,2023/10/18 15:29,2023/10/18 15:31,9252,,Array,vocab_task,Array,,,2
,survey-multi-choice,20,165042,0.0-2.0-18.0,4790284,2023/10/18 15:29,2023/10/18 15:31,8702,,Array,vocab_task,Array,,,2
,survey-multi-choice,21,171398,0.0-2.0-19.0,4790284,2023/10/18 15:29,2023/10/18 15:31,6353,,Array,vocab_task,Array,,,0
,html-keyboard-response,22,172864,0.0-3.0,4790284,2023/10/18 15:29,2023/10/18 15:31,1464,<p style='text-algin:left'>これで実験は終了です。お疲れ様でした。</p><p style='text-algin:left'>スペースキーを押したのち、画面を閉じてください。</p>, ,vocab_debrief,,,,0
1,fullscreen,0,7502,0.0-0.0,2933739,2023/10/18 15:29,2023/10/18 15:33,,,,,,,,0
,html-keyboard-response,1,18231,0.0-1.0,2933739,2023/10/18 15:29,2023/10/18 15:33,10728,<p style='text-algin:left'>これから、20個の単語についてその意味をおききします。</p><p style='text-algin:left'>語の意味を表すものとして、<u>最も適切なもの</u>をひとつ選択してください。</p><p><br><br></br><p style='text-algin:left'>準備ができたらスペーキーを押して、課題をはじめてください。</p>, ,vocab_instruction,,,,0
,survey-multi-choice,2,27985,0.0-2.0-0.0,2933739,2023/10/18 15:29,2023/10/18 15:33,9752,,Array,vocab_task,Array,,,2
,survey-multi-choice,3,33713,0.0-2.0-1.0,2933739,2023/10/18 15:29,2023/10/18 15:33,5725,,Array,vocab_task,Array,,,2
,survey-multi-choice,4,37424,0.0-2.0-2.0,2933739,2023/10/18 15:29,2023/10/18 15:33,3709,,Array,vocab_task,Array,,,2
,survey-multi-choice,5,45961,0.0-2.0-3.0,2933739,2023/10/18 15:29,2023/10/18 15:33,8533,,Array,vocab_task,Array,,,2
,survey-multi-choice,6,53248,0.0-2.0-4.0,2933739,2023/10/18 15:29,2023/10/18 15:33,7285,,Array,vocab_task,Array,,,2
,survey-multi-choice,7,59688,0.0-2.0-5.0,2933739,2023/10/18 15:29,2023/10/18 15:33,6437,,Array,vocab_task,Array,,,2
,survey-multi-choice,8,83664,0.0-2.0-6.0,2933739,2023/10/18 15:29,2023/10/18 15:33,23973,,Array,vocab_task,Array,,,2
,survey-multi-choice,9,105520,0.0-2.0-7.0,2933739,2023/10/18 15:29,2023/10/18 15:33,21853,,Array,vocab_task,Array,,,0
,survey-multi-choice,10,118504,0.0-2.0-8.0,2933739,2023/10/18 15:29,2023/10/18 15:33,12981,,Array,vocab_task,Array,,,1
