success,trial_type,trial_index,time_elapsed,internal_node_id,cwid,StartTime,EndTime,rt,response,task,question_order,stim,answer,stimulus,Correct
1.0,fullscreen,0,10111,0.0-0.0,963459,44965.5055439815,44965.5136921296,,,,,,,,0
,survey-html-form,1,16571,0.0-1.0,963459,44965.5055439815,44965.5136921296,6458.0,Array,rpms_instruction,,,,,0
,survey-html-form,2,29953,0.0-2.0,963459,44965.5055439815,44965.5136921296,13381.0,Array,rpms_instruction,,,,,0
,survey-html-form,3,37777,0.0-3.0,963459,44965.5055439815,44965.5136921296,7823.0,Array,rpms_instruction,,,,,0
,survey-likert,4,135997,0.0-4.0-0.0,963459,44965.5055439815,44965.5136921296,98218.0,Array,rpms_task,Array,RPMShort_images/G0T1E01RPM01.png,5.0,,1
,survey-likert,5,164128,0.0-4.0-1.0,963459,44965.5055439815,44965.5136921296,28128.0,Array,rpms_task,Array,RPMShort_images/G0T1E02RPM04.png,5.0,,0
,survey-likert,6,219832,0.0-4.0-2.0,963459,44965.5055439815,44965.5136921296,55700.0,Array,rpms_task,Array,RPMShort_images/G0T1E03RPM08.png,1.0,,1
,survey-likert,7,233113,0.0-4.0-3.0,963459,44965.5055439815,44965.5136921296,13278.0,Array,rpms_task,Array,RPMShort_images/G0T1E04RPM11.png,5.0,,1
,survey-likert,8,267453,0.0-4.0-4.0,963459,44965.5055439815,44965.5136921296,34337.0,Array,rpms_task,Array,RPMShort_images/G0T1E05RPM15.png,2.0,,1
,survey-likert,9,308979,0.0-4.0-5.0,963459,44965.5055439815,44965.5136921296,41523.0,Array,rpms_task,Array,RPMShort_images/G0T1E06RPM18.png,7.0,,1
,survey-likert,10,356589,0.0-4.0-6.0,963459,44965.5055439815,44965.5136921296,47606.0,Array,rpms_task,Array,RPMShort_images/G0T1E07RPM21.png,8.0,,1
,survey-likert,11,383480,0.0-4.0-7.0,963459,44965.5055439815,44965.5136921296,26889.0,Array,rpms_task,Array,RPMShort_images/G0T1E08RPM23.png,6.0,,1
,survey-likert,12,418404,0.0-4.0-8.0,963459,44965.5055439815,44965.5136921296,34921.0,Array,rpms_task,Array,RPMShort_images/G0T1E09RPM25.png,7.0,,1
,survey-likert,13,499858,0.0-4.0-9.0,963459,44965.5055439815,44965.5136921296,81450.0,Array,rpms_task,Array,RPMShort_images/G0T1E10RPM30.png,5.0,,1
,survey-likert,14,682417,0.0-4.0-10.0,963459,44965.5055439815,44965.5136921296,182555.0,Array,rpms_task,Array,RPMShort_images/G0T1E11RPM31.png,8.0,,0
,survey-likert,15,699928,0.0-4.0-11.0,963459,44965.5055439815,44965.5136921296,17508.0,Array,rpms_task,Array,RPMShort_images/G0T1E12RPM35.png,3.0,,1
,html-keyboard-response,16,703614,0.0-5.0,963459,44965.5055439815,44965.5136921296,3682.0, ,rpms_debrief,,,,<p style='text-algin:left'>これで実験は終了です。お疲れ様でした。</p><p style='text-algin:left'>スペースキーを押したのち、画面を閉じてください。</p>,0
1.0,fullscreen,0,3748,0.0-0.0,4409144,44965.5106134259,44965.5134722222,,,,,,,,0
,survey-html-form,1,12957,0.0-1.0,4409144,44965.5106134259,44965.5134722222,9203.0,Array,rpms_instruction,,,,,0
,survey-html-form,2,22272,0.0-2.0,4409144,44965.5106134259,44965.5134722222,9312.0,Array,rpms_instruction,,,,,0
,survey-html-form,3,27552,0.0-3.0,4409144,44965.5106134259,44965.5134722222,5279.0,Array,rpms_instruction,,,,,0
,survey-likert,4,54010,0.0-4.0-0.0,4409144,44965.5106134259,44965.5134722222,26455.0,Array,rpms_task,Array,RPMShort_images/G0T1E01RPM01.png,8.0,,0
,survey-likert,5,71080,0.0-4.0-1.0,4409144,44965.5106134259,44965.5134722222,17064.0,Array,rpms_task,Array,RPMShort_images/G0T1E02RPM04.png,5.0,,0
,survey-likert,6,86187,0.0-4.0-2.0,4409144,44965.5106134259,44965.5134722222,15102.0,Array,rpms_task,Array,RPMShort_images/G0T1E03RPM08.png,8.0,,0
,survey-likert,7,111645,0.0-4.0-3.0,4409144,44965.5106134259,44965.5134722222,25453.0,Array,rpms_task,Array,RPMShort_images/G0T1E04RPM11.png,5.0,,1
,survey-likert,8,136307,0.0-4.0-4.0,4409144,44965.5106134259,44965.5134722222,24652.0,Array,rpms_task,Array,RPMShort_images/G0T1E05RPM15.png,7.0,,0
,survey-likert,9,158999,0.0-4.0-5.0,4409144,44965.5106134259,44965.5134722222,22686.0,Array,rpms_task,Array,RPMShort_images/G0T1E06RPM18.png,1.0,,0
,survey-likert,10,174617,0.0-4.0-6.0,4409144,44965.5106134259,44965.5134722222,15613.0,Array,rpms_task,Array,RPMShort_images/G0T1E07RPM21.png,8.0,,1
,survey-likert,11,189476,0.0-4.0-7.0,4409144,44965.5106134259,44965.5134722222,14854.0,Array,rpms_task,Array,RPMShort_images/G0T1E08RPM23.png,6.0,,1
,survey-likert,12,203144,0.0-4.0-8.0,4409144,44965.5106134259,44965.5134722222,13675.0,Array,rpms_task,Array,RPMShort_images/G0T1E09RPM25.png,7.0,,1
,survey-likert,13,215816,0.0-4.0-9.0,4409144,44965.5106134259,44965.5134722222,12664.0,Array,rpms_task,Array,RPMShort_images/G0T1E10RPM30.png,2.0,,0
,survey-likert,14,229105,0.0-4.0-10.0,4409144,44965.5106134259,44965.5134722222,13282.0,Array,rpms_task,Array,RPMShort_images/G0T1E11RPM31.png,7.0,,0
,survey-likert,15,242104,0.0-4.0-11.0,4409144,44965.5106134259,44965.5134722222,12993.0,Array,rpms_task,Array,RPMShort_images/G0T1E12RPM35.png,4.0,,0
,html-keyboard-response,16,247139,0.0-5.0,4409144,44965.5106134259,44965.5134722222,5029.0, ,rpms_debrief,,,,<p style='text-algin:left'>これで実験は終了です。お疲れ様でした。</p><p style='text-algin:left'>スペースキーを押したのち、画面を閉じてください。</p>,0
1.0,fullscreen,0,16100,0.0-0.0,2141268,44965.5068518519,44965.5167476852,,,,,,,,0
,survey-html-form,1,37846,0.0-1.0,2141268,44965.5068518519,44965.5167476852,21743.0,Array,rpms_instruction,,,,,0
,survey-html-form,2,45246,0.0-2.0,2141268,44965.5068518519,44965.5167476852,7399.0,Array,rpms_instruction,,,,,0
,survey-html-form,3,50109,0.0-3.0,2141268,44965.5068518519,44965.5167476852,4863.0,Array,rpms_instruction,,,,,0
,survey-likert,4,106046,0.0-4.0-0.0,2141268,44965.5068518519,44965.5167476852,55935.0,Array,rpms_task,Array,RPMShort_images/G0T1E01RPM01.png,5.0,,1
,survey-likert,5,128011,0.0-4.0-1.0,2141268,44965.5068518519,44965.5167476852,21961.0,Array,rpms_task,Array,RPMShort_images/G0T1E02RPM04.png,4.0,,1
,survey-likert,6,218621,0.0-4.0-2.0,2141268,44965.5068518519,44965.5167476852,90607.0,Array,rpms_task,Array,RPMShort_images/G0T1E03RPM08.png,1.0,,1
,survey-likert,7,251148,0.0-4.0-3.0,2141268,44965.5068518519,44965.5167476852,32524.0,Array,rpms_task,Array,RPMShort_images/G0T1E04RPM11.png,5.0,,1
,survey-likert,8,319835,0.0-4.0-4.0,2141268,44965.5068518519,44965.5167476852,68685.0,Array,rpms_task,Array,RPMShort_images/G0T1E05RPM15.png,2.0,,1
,survey-likert,9,342315,0.0-4.0-5.0,2141268,44965.5068518519,44965.5167476852,22477.0,Array,rpms_task,Array,RPMShort_images/G0T1E06RPM18.png,7.0,,1
,survey-likert,10,400787,0.0-4.0-6.0,2141268,44965.5068518519,44965.5167476852,58469.0,Array,rpms_task,Array,RPMShort_images/G0T1E07RPM21.png,1.0,,0
,survey-likert,11,466778,0.0-4.0-7.0,2141268,44965.5068518519,44965.5167476852,65988.0,Array,rpms_task,Array,RPMShort_images/G0T1E08RPM23.png,6.0,,1
,survey-likert,12,540922,0.0-4.0-8.0,2141268,44965.5068518519,44965.5167476852,74141.0,Array,rpms_task,Array,RPMShort_images/G0T1E09RPM25.png,7.0,,1
,survey-likert,13,713753,0.0-4.0-9.0,2141268,44965.5068518519,44965.5167476852,172828.0,Array,rpms_task,Array,RPMShort_images/G0T1E10RPM30.png,8.0,,0
,survey-likert,14,736280,0.0-4.0-10.0,2141268,44965.5068518519,44965.5167476852,22524.0,Array,rpms_task,Array,RPMShort_images/G0T1E11RPM31.png,5.0,,0
,survey-likert,15,852400,0.0-4.0-11.0,2141268,44965.5068518519,44965.5167476852,116116.0,Array,rpms_task,Array,RPMShort_images/G0T1E12RPM35.png,3.0,,1
,html-keyboard-response,16,855067,0.0-5.0,2141268,44965.5068518519,44965.5167476852,2663.0, ,rpms_debrief,,,,<p style='text-algin:left'>これで実験は終了です。お疲れ様でした。</p><p style='text-algin:left'>スペースキーを押したのち、画面を閉じてください。</p>,0
1.0,fullscreen,0,2401,0.0-0.0,2286689,44965.5119907407,44965.5166550926,,,,,,,,0
,survey-html-form,1,8937,0.0-1.0,2286689,44965.5119907407,44965.5166550926,6534.0,Array,rpms_instruction,,,,,0
,survey-html-form,2,22721,0.0-2.0,2286689,44965.5119907407,44965.5166550926,13783.0,Array,rpms_instruction,,,,,0
,survey-html-form,3,25487,0.0-3.0,2286689,44965.5119907407,44965.5166550926,2765.0,Array,rpms_instruction,,,,,0
,survey-likert,4,55549,0.0-4.0-0.0,2286689,44965.5119907407,44965.5166550926,30061.0,Array,rpms_task,Array,RPMShort_images/G0T1E01RPM01.png,7.0,,0
,survey-likert,5,147763,0.0-4.0-1.0,2286689,44965.5119907407,44965.5166550926,92199.0,Array,rpms_task,Array,RPMShort_images/G0T1E02RPM04.png,7.0,,0
,survey-likert,6,177724,0.0-4.0-2.0,2286689,44965.5119907407,44965.5166550926,29948.0,Array,rpms_task,Array,RPMShort_images/G0T1E03RPM08.png,5.0,,0
,survey-likert,7,203218,0.0-4.0-3.0,2286689,44965.5119907407,44965.5166550926,25480.0,Array,rpms_task,Array,RPMShort_images/G0T1E04RPM11.png,7.0,,0
,survey-likert,8,227452,0.0-4.0-4.0,2286689,44965.5119907407,44965.5166550926,24220.0,Array,rpms_task,Array,RPMShort_images/G0T1E05RPM15.png,4.0,,0
,survey-likert,9,236768,0.0-4.0-5.0,2286689,44965.5119907407,44965.5166550926,9303.0,Array,rpms_task,Array,RPMShort_images/G0T1E06RPM18.png,4.0,,0
,survey-likert,10,263408,0.0-4.0-6.0,2286689,44965.5119907407,44965.5166550926,26627.0,Array,rpms_task,Array,RPMShort_images/G0T1E07RPM21.png,4.0,,0
,survey-likert,11,277110,0.0-4.0-7.0,2286689,44965.5119907407,44965.5166550926,13689.0,Array,rpms_task,Array,RPMShort_images/G0T1E08RPM23.png,6.0,,1
,survey-likert,12,304506,0.0-4.0-8.0,2286689,44965.5119907407,44965.5166550926,27382.0,Array,rpms_task,Array,RPMShort_images/G0T1E09RPM25.png,7.0,,1
,survey-likert,13,337511,0.0-4.0-9.0,2286689,44965.5119907407,44965.5166550926,32992.0,Array,rpms_task,Array,RPMShort_images/G0T1E10RPM30.png,1.0,,0
,survey-likert,14,354131,0.0-4.0-10.0,2286689,44965.5119907407,44965.5166550926,16607.0,Array,rpms_task,Array,RPMShort_images/G0T1E11RPM31.png,7.0,,0
,survey-likert,15,397319,0.0-4.0-11.0,2286689,44965.5119907407,44965.5166550926,43174.0,Array,rpms_task,Array,RPMShort_images/G0T1E12RPM35.png,1.0,,0
,html-keyboard-response,16,402452,0.0-5.0,2286689,44965.5119907407,44965.5166550926,5118.0, ,rpms_debrief,,,,<p style='text-algin:left'>これで実験は終了です。お疲れ様でした。</p><p style='text-algin:left'>スペースキーを押したのち、画面を閉じてください。</p>,0
1.0,fullscreen,0,3574,0.0-0.0,3063359,44965.5113541667,44965.5191203704,,,,,,,,0
,survey-html-form,1,14230,0.0-1.0,3063359,44965.5113541667,44965.5191203704,10653.0,Array,rpms_instruction,,,,,0
,survey-html-form,2,24850,0.0-2.0,3063359,44965.5113541667,44965.5191203704,10618.0,Array,rpms_instruction,,,,,0
,survey-html-form,3,33398,0.0-3.0,3063359,44965.5113541667,44965.5191203704,8547.0,Array,rpms_instruction,,,,,0
,survey-likert,4,79439,0.0-4.0-0.0,3063359,44965.5113541667,44965.5191203704,46038.0,Array,rpms_task,Array,RPMShort_images/G0T1E01RPM01.png,5.0,,1
,survey-likert,5,115438,0.0-4.0-1.0,3063359,44965.5113541667,44965.5191203704,35994.0,Array,rpms_task,Array,RPMShort_images/G0T1E02RPM04.png,8.0,,0
,survey-likert,6,163785,0.0-4.0-2.0,3063359,44965.5113541667,44965.5191203704,48342.0,Array,rpms_task,Array,RPMShort_images/G0T1E03RPM08.png,1.0,,1
,survey-likert,7,180389,0.0-4.0-3.0,3063359,44965.5113541667,44965.5191203704,16599.0,Array,rpms_task,Array,RPMShort_images/G0T1E04RPM11.png,4.0,,0
,survey-likert,8,218850,0.0-4.0-4.0,3063359,44965.5113541667,44965.5191203704,38456.0,Array,rpms_task,Array,RPMShort_images/G0T1E05RPM15.png,2.0,,1
,survey-likert,9,290045,0.0-4.0-5.0,3063359,44965.5113541667,44965.5191203704,71189.0,Array,rpms_task,Array,RPMShort_images/G0T1E06RPM18.png,5.0,,0
,survey-likert,10,338790,0.0-4.0-6.0,3063359,44965.5113541667,44965.5191203704,48741.0,Array,rpms_task,Array,RPMShort_images/G0T1E07RPM21.png,8.0,,1
,survey-likert,11,457246,0.0-4.0-7.0,3063359,44965.5113541667,44965.5191203704,118451.0,Array,rpms_task,Array,RPMShort_images/G0T1E08RPM23.png,3.0,,0
,survey-likert,12,509397,0.0-4.0-8.0,3063359,44965.5113541667,44965.5191203704,52147.0,Array,rpms_task,Array,RPMShort_images/G0T1E09RPM25.png,7.0,,1
,survey-likert,13,544341,0.0-4.0-9.0,3063359,44965.5113541667,44965.5191203704,34939.0,Array,rpms_task,Array,RPMShort_images/G0T1E10RPM30.png,4.0,,0
,survey-likert,14,595380,0.0-4.0-10.0,3063359,44965.5113541667,44965.5191203704,51033.0,Array,rpms_task,Array,RPMShort_images/G0T1E11RPM31.png,3.0,,0
,survey-likert,15,668422,0.0-4.0-11.0,3063359,44965.5113541667,44965.5191203704,73038.0,Array,rpms_task,Array,RPMShort_images/G0T1E12RPM35.png,2.0,,0
,html-keyboard-response,16,670837,0.0-5.0,3063359,44965.5113541667,44965.5191203704,2408.0, ,rpms_debrief,,,,<p style='text-algin:left'>これで実験は終了です。お疲れ様でした。</p><p style='text-algin:left'>スペースキーを押したのち、画面を閉じてください。</p>,0
1.0,fullscreen,0,2511,0.0-0.0,1558844,44965.5179861111,44965.5199189815,,,,,,,,0
,survey-html-form,1,4962,0.0-1.0,1558844,44965.5179861111,44965.5199189815,2449.0,Array,rpms_instruction,,,,,0
,survey-html-form,2,37348,0.0-2.0,1558844,44965.5179861111,44965.5199189815,32385.0,Array,rpms_instruction,,,,,0
,survey-html-form,3,41119,0.0-3.0,1558844,44965.5179861111,44965.5199189815,3770.0,Array,rpms_instruction,,,,,0
,survey-likert,4,90045,0.0-4.0-0.0,1558844,44965.5179861111,44965.5199189815,48924.0,Array,rpms_task,Array,RPMShort_images/G0T1E01RPM01.png,8.0,,0
,survey-likert,5,98708,0.0-4.0-1.0,1558844,44965.5179861111,44965.5199189815,8661.0,Array,rpms_task,Array,RPMShort_images/G0T1E02RPM04.png,7.0,,0
,survey-likert,6,102874,0.0-4.0-2.0,1558844,44965.5179861111,44965.5199189815,4164.0,Array,rpms_task,Array,RPMShort_images/G0T1E03RPM08.png,4.0,,0
,survey-likert,7,116904,0.0-4.0-3.0,1558844,44965.5179861111,44965.5199189815,14028.0,Array,rpms_task,Array,RPMShort_images/G0T1E04RPM11.png,4.0,,0
,survey-likert,8,125707,0.0-4.0-4.0,1558844,44965.5179861111,44965.5199189815,8802.0,Array,rpms_task,Array,RPMShort_images/G0T1E05RPM15.png,6.0,,0
,survey-likert,9,128916,0.0-4.0-5.0,1558844,44965.5179861111,44965.5199189815,3207.0,Array,rpms_task,Array,RPMShort_images/G0T1E06RPM18.png,5.0,,0
,survey-likert,10,132916,0.0-4.0-6.0,1558844,44965.5179861111,44965.5199189815,3998.0,Array,rpms_task,Array,RPMShort_images/G0T1E07RPM21.png,1.0,,0
,survey-likert,11,135012,0.0-4.0-7.0,1558844,44965.5179861111,44965.5199189815,2094.0,Array,rpms_task,Array,RPMShort_images/G0T1E08RPM23.png,3.0,,0
,survey-likert,12,144096,0.0-4.0-8.0,1558844,44965.5179861111,44965.5199189815,9083.0,Array,rpms_task,Array,RPMShort_images/G0T1E09RPM25.png,3.0,,0
,survey-likert,13,146829,0.0-4.0-9.0,1558844,44965.5179861111,44965.5199189815,2731.0,Array,rpms_task,Array,RPMShort_images/G0T1E10RPM30.png,6.0,,0
,survey-likert,14,149456,0.0-4.0-10.0,1558844,44965.5179861111,44965.5199189815,2624.0,Array,rpms_task,Array,RPMShort_images/G0T1E11RPM31.png,5.0,,0
,survey-likert,15,152934,0.0-4.0-11.0,1558844,44965.5179861111,44965.5199189815,3475.0,Array,rpms_task,Array,RPMShort_images/G0T1E12RPM35.png,7.0,,0
,html-keyboard-response,16,166853,0.0-5.0,1558844,44965.5179861111,44965.5199189815,13916.0, ,rpms_debrief,,,,<p style='text-algin:left'>これで実験は終了です。お疲れ様でした。</p><p style='text-algin:left'>スペースキーを押したのち、画面を閉じてください。</p>,0
1.0,fullscreen,0,17615,0.0-0.0,3366361,44965.5128472222,44965.5195717593,,,,,,,,0
,survey-html-form,1,35204,0.0-1.0,3366361,44965.5128472222,44965.5195717593,17587.0,Array,rpms_instruction,,,,,0
,survey-html-form,2,48503,0.0-2.0,3366361,44965.5128472222,44965.5195717593,13297.0,Array,rpms_instruction,,,,,0
,survey-html-form,3,58420,0.0-3.0,3366361,44965.5128472222,44965.5195717593,9915.0,Array,rpms_instruction,,,,,0
,survey-likert,4,108438,0.0-4.0-0.0,3366361,44965.5128472222,44965.5195717593,50014.0,Array,rpms_task,Array,RPMShort_images/G0T1E01RPM01.png,5.0,,1
,survey-likert,5,136403,0.0-4.0-1.0,3366361,44965.5128472222,44965.5195717593,27959.0,Array,rpms_task,Array,RPMShort_images/G0T1E02RPM04.png,4.0,,1
,survey-likert,6,160486,0.0-4.0-2.0,3366361,44965.5128472222,44965.5195717593,24075.0,Array,rpms_task,Array,RPMShort_images/G0T1E03RPM08.png,2.0,,0
,survey-likert,7,176302,0.0-4.0-3.0,3366361,44965.5128472222,44965.5195717593,15810.0,Array,rpms_task,Array,RPMShort_images/G0T1E04RPM11.png,5.0,,1
,survey-likert,8,222053,0.0-4.0-4.0,3366361,44965.5128472222,44965.5195717593,45746.0,Array,rpms_task,Array,RPMShort_images/G0T1E05RPM15.png,2.0,,1
,survey-likert,9,270686,0.0-4.0-5.0,3366361,44965.5128472222,44965.5195717593,48625.0,Array,rpms_task,Array,RPMShort_images/G0T1E06RPM18.png,7.0,,1
,survey-likert,10,290353,0.0-4.0-6.0,3366361,44965.5128472222,44965.5195717593,19657.0,Array,rpms_task,Array,RPMShort_images/G0T1E07RPM21.png,8.0,,1
,survey-likert,11,329252,0.0-4.0-7.0,3366361,44965.5128472222,44965.5195717593,38892.0,Array,rpms_task,Array,RPMShort_images/G0T1E08RPM23.png,6.0,,1
,survey-likert,12,349752,0.0-4.0-8.0,3366361,44965.5128472222,44965.5195717593,20492.0,Array,rpms_task,Array,RPMShort_images/G0T1E09RPM25.png,7.0,,1
,survey-likert,13,402268,0.0-4.0-9.0,3366361,44965.5128472222,44965.5195717593,52507.0,Array,rpms_task,Array,RPMShort_images/G0T1E10RPM30.png,3.0,,0
,survey-likert,14,510400,0.0-4.0-10.0,3366361,44965.5128472222,44965.5195717593,108128.0,Array,rpms_task,Array,RPMShort_images/G0T1E11RPM31.png,4.0,,1
,survey-likert,15,576516,0.0-4.0-11.0,3366361,44965.5128472222,44965.5195717593,66109.0,Array,rpms_task,Array,RPMShort_images/G0T1E12RPM35.png,6.0,,0
,html-keyboard-response,16,580862,0.0-5.0,3366361,44965.5128472222,44965.5195717593,4337.0, ,rpms_debrief,,,,<p style='text-algin:left'>これで実験は終了です。お疲れ様でした。</p><p style='text-algin:left'>スペースキーを押したのち、画面を閉じてください。</p>,0
1.0,fullscreen,0,1988,0.0-0.0,5136219,44965.5176388889,44965.5209837963,,,,,,,,0
,survey-html-form,1,7962,0.0-1.0,5136219,44965.5176388889,44965.5209837963,5970.0,Array,rpms_instruction,,,,,0
,survey-html-form,2,12204,0.0-2.0,5136219,44965.5176388889,44965.5209837963,4241.0,Array,rpms_instruction,,,,,0
,survey-html-form,3,14525,0.0-3.0,5136219,44965.5176388889,44965.5209837963,2320.0,Array,rpms_instruction,,,,,0
,survey-likert,4,39836,0.0-4.0-0.0,5136219,44965.5176388889,44965.5209837963,25307.0,Array,rpms_task,Array,RPMShort_images/G0T1E01RPM01.png,5.0,,1
,survey-likert,5,64910,0.0-4.0-1.0,5136219,44965.5176388889,44965.5209837963,25066.0,Array,rpms_task,Array,RPMShort_images/G0T1E02RPM04.png,8.0,,0
,survey-likert,6,109494,0.0-4.0-2.0,5136219,44965.5176388889,44965.5209837963,44580.0,Array,rpms_task,Array,RPMShort_images/G0T1E03RPM08.png,1.0,,1
,survey-likert,7,130221,0.0-4.0-3.0,5136219,44965.5176388889,44965.5209837963,20721.0,Array,rpms_task,Array,RPMShort_images/G0T1E04RPM11.png,4.0,,0
,survey-likert,8,150624,0.0-4.0-4.0,5136219,44965.5176388889,44965.5209837963,20396.0,Array,rpms_task,Array,RPMShort_images/G0T1E05RPM15.png,8.0,,0
,survey-likert,9,161995,0.0-4.0-5.0,5136219,44965.5176388889,44965.5209837963,11364.0,Array,rpms_task,Array,RPMShort_images/G0T1E06RPM18.png,2.0,,0
,survey-likert,10,176659,0.0-4.0-6.0,5136219,44965.5176388889,44965.5209837963,14659.0,Array,rpms_task,Array,RPMShort_images/G0T1E07RPM21.png,1.0,,0
,survey-likert,11,191100,0.0-4.0-7.0,5136219,44965.5176388889,44965.5209837963,14434.0,Array,rpms_task,Array,RPMShort_images/G0T1E08RPM23.png,8.0,,0
,survey-likert,12,220838,0.0-4.0-8.0,5136219,44965.5176388889,44965.5209837963,29732.0,Array,rpms_task,Array,RPMShort_images/G0T1E09RPM25.png,7.0,,1
,survey-likert,13,234962,0.0-4.0-9.0,5136219,44965.5176388889,44965.5209837963,14118.0,Array,rpms_task,Array,RPMShort_images/G0T1E10RPM30.png,8.0,,0
,survey-likert,14,256463,0.0-4.0-10.0,5136219,44965.5176388889,44965.5209837963,21495.0,Array,rpms_task,Array,RPMShort_images/G0T1E11RPM31.png,3.0,,0
,survey-likert,15,286453,0.0-4.0-11.0,5136219,44965.5176388889,44965.5209837963,29984.0,Array,rpms_task,Array,RPMShort_images/G0T1E12RPM35.png,1.0,,0
,html-keyboard-response,16,288336,0.0-5.0,5136219,44965.5176388889,44965.5209837963,1876.0, ,rpms_debrief,,,,<p style='text-algin:left'>これで実験は終了です。お疲れ様でした。</p><p style='text-algin:left'>スペースキーを押したのち、画面を閉じてください。</p>,0
1.0,fullscreen,0,2610,0.0-0.0,4639437,44965.5179398148,44965.5214467593,,,,,,,,0
,survey-html-form,1,3926,0.0-1.0,4639437,44965.5179398148,44965.5214467593,1313.0,Array,rpms_instruction,,,,,0
,survey-html-form,2,15781,0.0-2.0,4639437,44965.5179398148,44965.5214467593,11854.0,Array,rpms_instruction,,,,,0
,survey-html-form,3,19197,0.0-3.0,4639437,44965.5179398148,44965.5214467593,3414.0,Array,rpms_instruction,,,,,0
,survey-likert,4,64711,0.0-4.0-0.0,4639437,44965.5179398148,44965.5214467593,45510.0,Array,rpms_task,Array,RPMShort_images/G0T1E01RPM01.png,5.0,,1
,survey-likert,5,97496,0.0-4.0-1.0,4639437,44965.5179398148,44965.5214467593,32778.0,Array,rpms_task,Array,RPMShort_images/G0T1E02RPM04.png,8.0,,0
,survey-likert,6,124777,0.0-4.0-2.0,4639437,44965.5179398148,44965.5214467593,27276.0,Array,rpms_task,Array,RPMShort_images/G0T1E03RPM08.png,1.0,,1
,survey-likert,7,144557,0.0-4.0-3.0,4639437,44965.5179398148,44965.5214467593,19774.0,Array,rpms_task,Array,RPMShort_images/G0T1E04RPM11.png,3.0,,0
,survey-likert,8,175760,0.0-4.0-4.0,4639437,44965.5179398148,44965.5214467593,31198.0,Array,rpms_task,Array,RPMShort_images/G0T1E05RPM15.png,8.0,,0
,survey-likert,9,201062,0.0-4.0-5.0,4639437,44965.5179398148,44965.5214467593,25295.0,Array,rpms_task,Array,RPMShort_images/G0T1E06RPM18.png,6.0,,0
,survey-likert,10,213779,0.0-4.0-6.0,4639437,44965.5179398148,44965.5214467593,12712.0,Array,rpms_task,Array,RPMShort_images/G0T1E07RPM21.png,1.0,,0
,survey-likert,11,251212,0.0-4.0-7.0,4639437,44965.5179398148,44965.5214467593,37427.0,Array,rpms_task,Array,RPMShort_images/G0T1E08RPM23.png,6.0,,1
,survey-likert,12,264160,0.0-4.0-8.0,4639437,44965.5179398148,44965.5214467593,12943.0,Array,rpms_task,Array,RPMShort_images/G0T1E09RPM25.png,7.0,,1
,survey-likert,13,274260,0.0-4.0-9.0,4639437,44965.5179398148,44965.5214467593,10094.0,Array,rpms_task,Array,RPMShort_images/G0T1E10RPM30.png,4.0,,0
,survey-likert,14,288860,0.0-4.0-10.0,4639437,44965.5179398148,44965.5214467593,14594.0,Array,rpms_task,Array,RPMShort_images/G0T1E11RPM31.png,5.0,,0
,survey-likert,15,300214,0.0-4.0-11.0,4639437,44965.5179398148,44965.5214467593,11348.0,Array,rpms_task,Array,RPMShort_images/G0T1E12RPM35.png,4.0,,0
,html-keyboard-response,16,303178,0.0-5.0,4639437,44965.5179398148,44965.5214467593,2957.0, ,rpms_debrief,,,,<p style='text-algin:left'>これで実験は終了です。お疲れ様でした。</p><p style='text-algin:left'>スペースキーを押したのち、画面を閉じてください。</p>,0
1.0,fullscreen,0,3601,0.0-0.0,4516926,44965.5174421296,44965.5214699074,,,,,,,,0
,survey-html-form,1,12886,0.0-1.0,4516926,44965.5174421296,44965.5214699074,9283.0,Array,rpms_instruction,,,,,0
,survey-html-form,2,21501,0.0-2.0,4516926,44965.5174421296,44965.5214699074,8615.0,Array,rpms_instruction,,,,,0
,survey-html-form,3,38565,0.0-3.0,4516926,44965.5174421296,44965.5214699074,17063.0,Array,rpms_instruction,,,,,0
,survey-likert,4,66743,0.0-4.0-0.0,4516926,44965.5174421296,44965.5214699074,28174.0,Array,rpms_task,Array,RPMShort_images/G0T1E01RPM01.png,5.0,,1
,survey-likert,5,95078,0.0-4.0-1.0,4516926,44965.5174421296,44965.5214699074,28332.0,Array,rpms_task,Array,RPMShort_images/G0T1E02RPM04.png,4.0,,1
,survey-likert,6,114574,0.0-4.0-2.0,4516926,44965.5174421296,44965.5214699074,19494.0,Array,rpms_task,Array,RPMShort_images/G0T1E03RPM08.png,1.0,,1
,survey-likert,7,153838,0.0-4.0-3.0,4516926,44965.5174421296,44965.5214699074,39261.0,Array,rpms_task,Array,RPMShort_images/G0T1E04RPM11.png,5.0,,1
,survey-likert,8,178198,0.0-4.0-4.0,4516926,44965.5174421296,44965.5214699074,24357.0,Array,rpms_task,Array,RPMShort_images/G0T1E05RPM15.png,2.0,,1
,survey-likert,9,193086,0.0-4.0-5.0,4516926,44965.5174421296,44965.5214699074,14885.0,Array,rpms_task,Array,RPMShort_images/G0T1E06RPM18.png,2.0,,0
,survey-likert,10,206230,0.0-4.0-6.0,4516926,44965.5174421296,44965.5214699074,13141.0,Array,rpms_task,Array,RPMShort_images/G0T1E07RPM21.png,4.0,,0
,survey-likert,11,232942,0.0-4.0-7.0,4516926,44965.5174421296,44965.5214699074,26710.0,Array,rpms_task,Array,RPMShort_images/G0T1E08RPM23.png,3.0,,0
,survey-likert,12,277471,0.0-4.0-8.0,4516926,44965.5174421296,44965.5214699074,44526.0,Array,rpms_task,Array,RPMShort_images/G0T1E09RPM25.png,2.0,,0
,survey-likert,13,303054,0.0-4.0-9.0,4516926,44965.5174421296,44965.5214699074,25581.0,Array,rpms_task,Array,RPMShort_images/G0T1E10RPM30.png,3.0,,0
,survey-likert,14,327606,0.0-4.0-10.0,4516926,44965.5174421296,44965.5214699074,24549.0,Array,rpms_task,Array,RPMShort_images/G0T1E11RPM31.png,2.0,,0
,survey-likert,15,345478,0.0-4.0-11.0,4516926,44965.5174421296,44965.5214699074,17869.0,Array,rpms_task,Array,RPMShort_images/G0T1E12RPM35.png,1.0,,0
,html-keyboard-response,16,347512,0.0-5.0,4516926,44965.5174421296,44965.5214699074,2031.0, ,rpms_debrief,,,,<p style='text-algin:left'>これで実験は終了です。お疲れ様でした。</p><p style='text-algin:left'>スペースキーを押したのち、画面を閉じてください。</p>,0
1.0,fullscreen,0,2854,0.0-0.0,4037243,44965.5172800926,44965.5216087963,,,,,,,,0
,survey-html-form,1,7682,0.0-1.0,4037243,44965.5172800926,44965.5216087963,4824.0,Array,rpms_instruction,,,,,0
,survey-html-form,2,17969,0.0-2.0,4037243,44965.5172800926,44965.5216087963,10286.0,Array,rpms_instruction,,,,,0
,survey-html-form,3,30025,0.0-3.0,4037243,44965.5172800926,44965.5216087963,12055.0,Array,rpms_instruction,,,,,0
,survey-likert,4,72290,0.0-4.0-0.0,4037243,44965.5172800926,44965.5216087963,42261.0,Array,rpms_task,Array,RPMShort_images/G0T1E01RPM01.png,4.0,,0
,survey-likert,5,101273,0.0-4.0-1.0,4037243,44965.5172800926,44965.5216087963,28978.0,Array,rpms_task,Array,RPMShort_images/G0T1E02RPM04.png,6.0,,0
,survey-likert,6,122809,0.0-4.0-2.0,4037243,44965.5172800926,44965.5216087963,21531.0,Array,rpms_task,Array,RPMShort_images/G0T1E03RPM08.png,1.0,,1
,survey-likert,7,168992,0.0-4.0-3.0,4037243,44965.5172800926,44965.5216087963,46179.0,Array,rpms_task,Array,RPMShort_images/G0T1E04RPM11.png,3.0,,0
,survey-likert,8,188256,0.0-4.0-4.0,4037243,44965.5172800926,44965.5216087963,19259.0,Array,rpms_task,Array,RPMShort_images/G0T1E05RPM15.png,6.0,,0
,survey-likert,9,204872,0.0-4.0-5.0,4037243,44965.5172800926,44965.5216087963,16611.0,Array,rpms_task,Array,RPMShort_images/G0T1E06RPM18.png,7.0,,1
,survey-likert,10,220864,0.0-4.0-6.0,4037243,44965.5172800926,44965.5216087963,15987.0,Array,rpms_task,Array,RPMShort_images/G0T1E07RPM21.png,4.0,,0
,survey-likert,11,231248,0.0-4.0-7.0,4037243,44965.5172800926,44965.5216087963,10379.0,Array,rpms_task,Array,RPMShort_images/G0T1E08RPM23.png,5.0,,0
,survey-likert,12,250200,0.0-4.0-8.0,4037243,44965.5172800926,44965.5216087963,18947.0,Array,rpms_task,Array,RPMShort_images/G0T1E09RPM25.png,1.0,,0
,survey-likert,13,304263,0.0-4.0-9.0,4037243,44965.5172800926,44965.5216087963,54059.0,Array,rpms_task,Array,RPMShort_images/G0T1E10RPM30.png,6.0,,0
,survey-likert,14,348623,0.0-4.0-10.0,4037243,44965.5172800926,44965.5216087963,44355.0,Array,rpms_task,Array,RPMShort_images/G0T1E11RPM31.png,6.0,,0
,survey-likert,15,370447,0.0-4.0-11.0,4037243,44965.5172800926,44965.5216087963,21820.0,Array,rpms_task,Array,RPMShort_images/G0T1E12RPM35.png,2.0,,0
,html-keyboard-response,16,374425,0.0-5.0,4037243,44965.5172800926,44965.5216087963,3971.0, ,rpms_debrief,,,,<p style='text-algin:left'>これで実験は終了です。お疲れ様でした。</p><p style='text-algin:left'>スペースキーを押したのち、画面を閉じてください。</p>,0
1.0,fullscreen,0,27132,0.0-0.0,1034994,44965.5182060185,44965.5216550926,,,,,,,,0
,survey-html-form,1,32424,0.0-1.0,1034994,44965.5182060185,44965.5216550926,5290.0,Array,rpms_instruction,,,,,0
,survey-html-form,2,52313,0.0-2.0,1034994,44965.5182060185,44965.5216550926,19889.0,Array,rpms_instruction,,,,,0
,survey-html-form,3,58960,0.0-3.0,1034994,44965.5182060185,44965.5216550926,6646.0,Array,rpms_instruction,,,,,0
,survey-likert,4,125253,0.0-4.0-0.0,1034994,44965.5182060185,44965.5216550926,66292.0,Array,rpms_task,Array,RPMShort_images/G0T1E01RPM01.png,8.0,,0
,survey-likert,5,149839,0.0-4.0-1.0,1034994,44965.5182060185,44965.5216550926,24583.0,Array,rpms_task,Array,RPMShort_images/G0T1E02RPM04.png,2.0,,0
,survey-likert,6,168452,0.0-4.0-2.0,1034994,44965.5182060185,44965.5216550926,18609.0,Array,rpms_task,Array,RPMShort_images/G0T1E03RPM08.png,5.0,,0
,survey-likert,7,180579,0.0-4.0-3.0,1034994,44965.5182060185,44965.5216550926,12124.0,Array,rpms_task,Array,RPMShort_images/G0T1E04RPM11.png,4.0,,0
,survey-likert,8,200455,0.0-4.0-4.0,1034994,44965.5182060185,44965.5216550926,19873.0,Array,rpms_task,Array,RPMShort_images/G0T1E05RPM15.png,3.0,,0
,survey-likert,9,219503,0.0-4.0-5.0,1034994,44965.5182060185,44965.5216550926,19046.0,Array,rpms_task,Array,RPMShort_images/G0T1E06RPM18.png,2.0,,0
,survey-likert,10,229064,0.0-4.0-6.0,1034994,44965.5182060185,44965.5216550926,9558.0,Array,rpms_task,Array,RPMShort_images/G0T1E07RPM21.png,1.0,,0
,survey-likert,11,240187,0.0-4.0-7.0,1034994,44965.5182060185,44965.5216550926,11120.0,Array,rpms_task,Array,RPMShort_images/G0T1E08RPM23.png,1.0,,0
,survey-likert,12,252656,0.0-4.0-8.0,1034994,44965.5182060185,44965.5216550926,12466.0,Array,rpms_task,Array,RPMShort_images/G0T1E09RPM25.png,2.0,,0
,survey-likert,13,265101,0.0-4.0-9.0,1034994,44965.5182060185,44965.5216550926,12442.0,Array,rpms_task,Array,RPMShort_images/G0T1E10RPM30.png,1.0,,0
,survey-likert,14,276692,0.0-4.0-10.0,1034994,44965.5182060185,44965.5216550926,11587.0,Array,rpms_task,Array,RPMShort_images/G0T1E11RPM31.png,5.0,,0
,survey-likert,15,294710,0.0-4.0-11.0,1034994,44965.5182060185,44965.5216550926,18015.0,Array,rpms_task,Array,RPMShort_images/G0T1E12RPM35.png,1.0,,0
,html-keyboard-response,16,297584,0.0-5.0,1034994,44965.5182060185,44965.5216550926,2870.0, ,rpms_debrief,,,,<p style='text-algin:left'>これで実験は終了です。お疲れ様でした。</p><p style='text-algin:left'>スペースキーを押したのち、画面を閉じてください。</p>,0
1.0,fullscreen,0,2949,0.0-0.0,3270660,44965.5194097222,44965.5217939815,,,,,,,,0
,survey-html-form,1,7401,0.0-1.0,3270660,44965.5194097222,44965.5217939815,4423.0,Array,rpms_instruction,,,,,0
,survey-html-form,2,17597,0.0-2.0,3270660,44965.5194097222,44965.5217939815,10195.0,Array,rpms_instruction,,,,,0
,survey-html-form,3,23687,0.0-3.0,3270660,44965.5194097222,44965.5217939815,6087.0,Array,rpms_instruction,,,,,0
,survey-likert,4,44079,0.0-4.0-0.0,3270660,44965.5194097222,44965.5217939815,20390.0,Array,rpms_task,Array,RPMShort_images/G0T1E01RPM01.png,2.0,,0
,survey-likert,5,56406,0.0-4.0-1.0,3270660,44965.5194097222,44965.5217939815,12321.0,Array,rpms_task,Array,RPMShort_images/G0T1E02RPM04.png,4.0,,1
,survey-likert,6,72997,0.0-4.0-2.0,3270660,44965.5194097222,44965.5217939815,16585.0,Array,rpms_task,Array,RPMShort_images/G0T1E03RPM08.png,5.0,,0
,survey-likert,7,87223,0.0-4.0-3.0,3270660,44965.5194097222,44965.5217939815,14218.0,Array,rpms_task,Array,RPMShort_images/G0T1E04RPM11.png,6.0,,0
,survey-likert,8,109830,0.0-4.0-4.0,3270660,44965.5194097222,44965.5217939815,22602.0,Array,rpms_task,Array,RPMShort_images/G0T1E05RPM15.png,8.0,,0
,survey-likert,9,124182,0.0-4.0-5.0,3270660,44965.5194097222,44965.5217939815,14346.0,Array,rpms_task,Array,RPMShort_images/G0T1E06RPM18.png,6.0,,0
,survey-likert,10,141822,0.0-4.0-6.0,3270660,44965.5194097222,44965.5217939815,17634.0,Array,rpms_task,Array,RPMShort_images/G0T1E07RPM21.png,8.0,,1
,survey-likert,11,157039,0.0-4.0-7.0,3270660,44965.5194097222,44965.5217939815,15210.0,Array,rpms_task,Array,RPMShort_images/G0T1E08RPM23.png,3.0,,0
,survey-likert,12,169230,0.0-4.0-8.0,3270660,44965.5194097222,44965.5217939815,12186.0,Array,rpms_task,Array,RPMShort_images/G0T1E09RPM25.png,6.0,,0
,survey-likert,13,176662,0.0-4.0-9.0,3270660,44965.5194097222,44965.5217939815,7429.0,Array,rpms_task,Array,RPMShort_images/G0T1E10RPM30.png,7.0,,0
,survey-likert,14,183646,0.0-4.0-10.0,3270660,44965.5194097222,44965.5217939815,6978.0,Array,rpms_task,Array,RPMShort_images/G0T1E11RPM31.png,2.0,,0
,survey-likert,15,202453,0.0-4.0-11.0,3270660,44965.5194097222,44965.5217939815,18802.0,Array,rpms_task,Array,RPMShort_images/G0T1E12RPM35.png,4.0,,0
,html-keyboard-response,16,205289,0.0-5.0,3270660,44965.5194097222,44965.5217939815,2829.0, ,rpms_debrief,,,,<p style='text-algin:left'>これで実験は終了です。お疲れ様でした。</p><p style='text-algin:left'>スペースキーを押したのち、画面を閉じてください。</p>,0
1.0,fullscreen,0,4752,0.0-0.0,4938544,44965.5194791667,44965.5232986111,,,,,,,,0
,survey-html-form,1,8089,0.0-1.0,4938544,44965.5194791667,44965.5232986111,3335.0,Array,rpms_instruction,,,,,0
,survey-html-form,2,19656,0.0-2.0,4938544,44965.5194791667,44965.5232986111,11566.0,Array,rpms_instruction,,,,,0
,survey-html-form,3,22811,0.0-3.0,4938544,44965.5194791667,44965.5232986111,3154.0,Array,rpms_instruction,,,,,0
,survey-likert,4,70499,0.0-4.0-0.0,4938544,44965.5194791667,44965.5232986111,47684.0,Array,rpms_task,Array,RPMShort_images/G0T1E01RPM01.png,5.0,,1
,survey-likert,5,108888,0.0-4.0-1.0,4938544,44965.5194791667,44965.5232986111,38384.0,Array,rpms_task,Array,RPMShort_images/G0T1E02RPM04.png,2.0,,0
,survey-likert,6,138352,0.0-4.0-2.0,4938544,44965.5194791667,44965.5232986111,29460.0,Array,rpms_task,Array,RPMShort_images/G0T1E03RPM08.png,1.0,,1
,survey-likert,7,182367,0.0-4.0-3.0,4938544,44965.5194791667,44965.5232986111,44011.0,Array,rpms_task,Array,RPMShort_images/G0T1E04RPM11.png,5.0,,1
,survey-likert,8,202583,0.0-4.0-4.0,4938544,44965.5194791667,44965.5232986111,20212.0,Array,rpms_task,Array,RPMShort_images/G0T1E05RPM15.png,7.0,,0
,survey-likert,9,218501,0.0-4.0-5.0,4938544,44965.5194791667,44965.5232986111,15913.0,Array,rpms_task,Array,RPMShort_images/G0T1E06RPM18.png,1.0,,0
,survey-likert,10,232939,0.0-4.0-6.0,4938544,44965.5194791667,44965.5232986111,14430.0,Array,rpms_task,Array,RPMShort_images/G0T1E07RPM21.png,4.0,,0
,survey-likert,11,261535,0.0-4.0-7.0,4938544,44965.5194791667,44965.5232986111,28592.0,Array,rpms_task,Array,RPMShort_images/G0T1E08RPM23.png,1.0,,0
,survey-likert,12,278909,0.0-4.0-8.0,4938544,44965.5194791667,44965.5232986111,17371.0,Array,rpms_task,Array,RPMShort_images/G0T1E09RPM25.png,7.0,,1
,survey-likert,13,292989,0.0-4.0-9.0,4938544,44965.5194791667,44965.5232986111,14076.0,Array,rpms_task,Array,RPMShort_images/G0T1E10RPM30.png,7.0,,0
,survey-likert,14,311385,0.0-4.0-10.0,4938544,44965.5194791667,44965.5232986111,18392.0,Array,rpms_task,Array,RPMShort_images/G0T1E11RPM31.png,8.0,,0
,survey-likert,15,325653,0.0-4.0-11.0,4938544,44965.5194791667,44965.5232986111,14264.0,Array,rpms_task,Array,RPMShort_images/G0T1E12RPM35.png,1.0,,0
,html-keyboard-response,16,329648,0.0-5.0,4938544,44965.5194791667,44965.5232986111,3990.0, ,rpms_debrief,,,,<p style='text-algin:left'>これで実験は終了です。お疲れ様でした。</p><p style='text-algin:left'>スペースキーを押したのち、画面を閉じてください。</p>,0
1.0,fullscreen,0,4980,0.0-0.0,329254,44965.5194675926,44965.5228472222,,,,,,,,0
,survey-html-form,1,23379,0.0-1.0,329254,44965.5194675926,44965.5228472222,18395.0,Array,rpms_instruction,,,,,0
,survey-html-form,2,32867,0.0-2.0,329254,44965.5194675926,44965.5228472222,9486.0,Array,rpms_instruction,,,,,0
,survey-html-form,3,44323,0.0-3.0,329254,44965.5194675926,44965.5228472222,11455.0,Array,rpms_instruction,,,,,0
,survey-likert,4,77588,0.0-4.0-0.0,329254,44965.5194675926,44965.5228472222,33262.0,Array,rpms_task,Array,RPMShort_images/G0T1E01RPM01.png,5.0,,1
,survey-likert,5,102492,0.0-4.0-1.0,329254,44965.5194675926,44965.5228472222,24898.0,Array,rpms_task,Array,RPMShort_images/G0T1E02RPM04.png,8.0,,0
,survey-likert,6,123915,0.0-4.0-2.0,329254,44965.5194675926,44965.5228472222,21418.0,Array,rpms_task,Array,RPMShort_images/G0T1E03RPM08.png,1.0,,1
,survey-likert,7,148020,0.0-4.0-3.0,329254,44965.5194675926,44965.5228472222,24099.0,Array,rpms_task,Array,RPMShort_images/G0T1E04RPM11.png,7.0,,0
,survey-likert,8,176035,0.0-4.0-4.0,329254,44965.5194675926,44965.5228472222,28009.0,Array,rpms_task,Array,RPMShort_images/G0T1E05RPM15.png,2.0,,1
,survey-likert,9,192898,0.0-4.0-5.0,329254,44965.5194675926,44965.5228472222,16858.0,Array,rpms_task,Array,RPMShort_images/G0T1E06RPM18.png,7.0,,1
,survey-likert,10,205779,0.0-4.0-6.0,329254,44965.5194675926,44965.5228472222,12875.0,Array,rpms_task,Array,RPMShort_images/G0T1E07RPM21.png,4.0,,0
,survey-likert,11,228203,0.0-4.0-7.0,329254,44965.5194675926,44965.5228472222,22419.0,Array,rpms_task,Array,RPMShort_images/G0T1E08RPM23.png,8.0,,0
,survey-likert,12,239732,0.0-4.0-8.0,329254,44965.5194675926,44965.5228472222,11523.0,Array,rpms_task,Array,RPMShort_images/G0T1E09RPM25.png,4.0,,0
,survey-likert,13,256211,0.0-4.0-9.0,329254,44965.5194675926,44965.5228472222,16473.0,Array,rpms_task,Array,RPMShort_images/G0T1E10RPM30.png,7.0,,0
,survey-likert,14,273635,0.0-4.0-10.0,329254,44965.5194675926,44965.5228472222,17419.0,Array,rpms_task,Array,RPMShort_images/G0T1E11RPM31.png,7.0,,0
,survey-likert,15,289563,0.0-4.0-11.0,329254,44965.5194675926,44965.5228472222,15922.0,Array,rpms_task,Array,RPMShort_images/G0T1E12RPM35.png,4.0,,0
,html-keyboard-response,16,291843,0.0-5.0,329254,44965.5194675926,44965.5228472222,2273.0, ,rpms_debrief,,,,<p style='text-algin:left'>これで実験は終了です。お疲れ様でした。</p><p style='text-algin:left'>スペースキーを押したのち、画面を閉じてください。</p>,0
1.0,fullscreen,0,3623,0.0-0.0,4523774,44965.5174305556,44965.522974537,,,,,,,,0
,survey-html-form,1,5167,0.0-1.0,4523774,44965.5174305556,44965.522974537,1541.0,Array,rpms_instruction,,,,,0
,survey-html-form,2,19601,0.0-2.0,4523774,44965.5174305556,44965.522974537,14433.0,Array,rpms_instruction,,,,,0
,survey-html-form,3,27175,0.0-3.0,4523774,44965.5174305556,44965.522974537,7573.0,Array,rpms_instruction,,,,,0
,survey-likert,4,54952,0.0-4.0-0.0,4523774,44965.5174305556,44965.522974537,27775.0,Array,rpms_task,Array,RPMShort_images/G0T1E01RPM01.png,5.0,,1
,survey-likert,5,93822,0.0-4.0-1.0,4523774,44965.5174305556,44965.522974537,38867.0,Array,rpms_task,Array,RPMShort_images/G0T1E02RPM04.png,4.0,,1
,survey-likert,6,120015,0.0-4.0-2.0,4523774,44965.5174305556,44965.522974537,26191.0,Array,rpms_task,Array,RPMShort_images/G0T1E03RPM08.png,1.0,,1
,survey-likert,7,243732,0.0-4.0-3.0,4523774,44965.5174305556,44965.522974537,123715.0,Array,rpms_task,Array,RPMShort_images/G0T1E04RPM11.png,5.0,,1
,survey-likert,8,276124,0.0-4.0-4.0,4523774,44965.5174305556,44965.522974537,32389.0,Array,rpms_task,Array,RPMShort_images/G0T1E05RPM15.png,6.0,,0
,survey-likert,9,309480,0.0-4.0-5.0,4523774,44965.5174305556,44965.522974537,33353.0,Array,rpms_task,Array,RPMShort_images/G0T1E06RPM18.png,8.0,,0
,survey-likert,10,336530,0.0-4.0-6.0,4523774,44965.5174305556,44965.522974537,27047.0,Array,rpms_task,Array,RPMShort_images/G0T1E07RPM21.png,7.0,,0
,survey-likert,11,355476,0.0-4.0-7.0,4523774,44965.5174305556,44965.522974537,18943.0,Array,rpms_task,Array,RPMShort_images/G0T1E08RPM23.png,5.0,,0
,survey-likert,12,377592,0.0-4.0-8.0,4523774,44965.5174305556,44965.522974537,22113.0,Array,rpms_task,Array,RPMShort_images/G0T1E09RPM25.png,7.0,,1
,survey-likert,13,412350,0.0-4.0-9.0,4523774,44965.5174305556,44965.522974537,34755.0,Array,rpms_task,Array,RPMShort_images/G0T1E10RPM30.png,1.0,,0
,survey-likert,14,433906,0.0-4.0-10.0,4523774,44965.5174305556,44965.522974537,21553.0,Array,rpms_task,Array,RPMShort_images/G0T1E11RPM31.png,7.0,,0
,survey-likert,15,476031,0.0-4.0-11.0,4523774,44965.5174305556,44965.522974537,42123.0,Array,rpms_task,Array,RPMShort_images/G0T1E12RPM35.png,1.0,,0
,html-keyboard-response,16,479162,0.0-5.0,4523774,44965.5174305556,44965.522974537,3127.0, ,rpms_debrief,,,,<p style='text-algin:left'>これで実験は終了です。お疲れ様でした。</p><p style='text-algin:left'>スペースキーを押したのち、画面を閉じてください。</p>,0
1.0,fullscreen,0,3862,0.0-0.0,1620490,44965.5184143518,44965.5229050926,,,,,,,,0
,survey-html-form,1,14925,0.0-1.0,1620490,44965.5184143518,44965.5229050926,11059.0,Array,rpms_instruction,,,,,0
,survey-html-form,2,24341,0.0-2.0,1620490,44965.5184143518,44965.5229050926,9415.0,Array,rpms_instruction,,,,,0
,survey-html-form,3,29133,0.0-3.0,1620490,44965.5184143518,44965.5229050926,4791.0,Array,rpms_instruction,,,,,0
,survey-likert,4,69359,0.0-4.0-0.0,1620490,44965.5184143518,44965.5229050926,40225.0,Array,rpms_task,Array,RPMShort_images/G0T1E01RPM01.png,2.0,,0
,survey-likert,5,101905,0.0-4.0-1.0,1620490,44965.5184143518,44965.5229050926,32541.0,Array,rpms_task,Array,RPMShort_images/G0T1E02RPM04.png,8.0,,0
,survey-likert,6,153691,0.0-4.0-2.0,1620490,44965.5184143518,44965.5229050926,51782.0,Array,rpms_task,Array,RPMShort_images/G0T1E03RPM08.png,1.0,,1
,survey-likert,7,173535,0.0-4.0-3.0,1620490,44965.5184143518,44965.5229050926,19841.0,Array,rpms_task,Array,RPMShort_images/G0T1E04RPM11.png,4.0,,0
,survey-likert,8,199965,0.0-4.0-4.0,1620490,44965.5184143518,44965.5229050926,26425.0,Array,rpms_task,Array,RPMShort_images/G0T1E05RPM15.png,5.0,,0
,survey-likert,9,224107,0.0-4.0-5.0,1620490,44965.5184143518,44965.5229050926,24138.0,Array,rpms_task,Array,RPMShort_images/G0T1E06RPM18.png,7.0,,1
,survey-likert,10,244729,0.0-4.0-6.0,1620490,44965.5184143518,44965.5229050926,20619.0,Array,rpms_task,Array,RPMShort_images/G0T1E07RPM21.png,1.0,,0
,survey-likert,11,263243,0.0-4.0-7.0,1620490,44965.5184143518,44965.5229050926,18511.0,Array,rpms_task,Array,RPMShort_images/G0T1E08RPM23.png,5.0,,0
,survey-likert,12,294205,0.0-4.0-8.0,1620490,44965.5184143518,44965.5229050926,30959.0,Array,rpms_task,Array,RPMShort_images/G0T1E09RPM25.png,8.0,,0
,survey-likert,13,332226,0.0-4.0-9.0,1620490,44965.5184143518,44965.5229050926,38018.0,Array,rpms_task,Array,RPMShort_images/G0T1E10RPM30.png,6.0,,0
,survey-likert,14,353500,0.0-4.0-10.0,1620490,44965.5184143518,44965.5229050926,21271.0,Array,rpms_task,Array,RPMShort_images/G0T1E11RPM31.png,7.0,,0
,survey-likert,15,379422,0.0-4.0-11.0,1620490,44965.5184143518,44965.5229050926,25919.0,Array,rpms_task,Array,RPMShort_images/G0T1E12RPM35.png,1.0,,0
,html-keyboard-response,16,387691,0.0-5.0,1620490,44965.5184143518,44965.5229050926,8264.0, ,rpms_debrief,,,,<p style='text-algin:left'>これで実験は終了です。お疲れ様でした。</p><p style='text-algin:left'>スペースキーを押したのち、画面を閉じてください。</p>,0
1.0,fullscreen,0,4668,0.0-0.0,62735,44965.5170833333,44965.5230324074,,,,,,,,0
,survey-html-form,1,21488,0.0-1.0,62735,44965.5170833333,44965.5230324074,16819.0,Array,rpms_instruction,,,,,0
,survey-html-form,2,31224,0.0-2.0,62735,44965.5170833333,44965.5230324074,9735.0,Array,rpms_instruction,,,,,0
,survey-html-form,3,36552,0.0-3.0,62735,44965.5170833333,44965.5230324074,5327.0,Array,rpms_instruction,,,,,0
,survey-likert,4,57680,0.0-4.0-0.0,62735,44965.5170833333,44965.5230324074,21126.0,Array,rpms_task,Array,RPMShort_images/G0T1E01RPM01.png,5.0,,1
,survey-likert,5,101558,0.0-4.0-1.0,62735,44965.5170833333,44965.5230324074,43872.0,Array,rpms_task,Array,RPMShort_images/G0T1E02RPM04.png,8.0,,0
,survey-likert,6,141208,0.0-4.0-2.0,62735,44965.5170833333,44965.5230324074,39645.0,Array,rpms_task,Array,RPMShort_images/G0T1E03RPM08.png,1.0,,1
,survey-likert,7,159591,0.0-4.0-3.0,62735,44965.5170833333,44965.5230324074,18379.0,Array,rpms_task,Array,RPMShort_images/G0T1E04RPM11.png,5.0,,1
,survey-likert,8,196287,0.0-4.0-4.0,62735,44965.5170833333,44965.5230324074,36691.0,Array,rpms_task,Array,RPMShort_images/G0T1E05RPM15.png,8.0,,0
,survey-likert,9,225799,0.0-4.0-5.0,62735,44965.5170833333,44965.5230324074,29506.0,Array,rpms_task,Array,RPMShort_images/G0T1E06RPM18.png,5.0,,0
,survey-likert,10,265311,0.0-4.0-6.0,62735,44965.5170833333,44965.5230324074,39507.0,Array,rpms_task,Array,RPMShort_images/G0T1E07RPM21.png,4.0,,0
,survey-likert,11,310742,0.0-4.0-7.0,62735,44965.5170833333,44965.5230324074,45426.0,Array,rpms_task,Array,RPMShort_images/G0T1E08RPM23.png,6.0,,1
,survey-likert,12,359494,0.0-4.0-8.0,62735,44965.5170833333,44965.5230324074,48747.0,Array,rpms_task,Array,RPMShort_images/G0T1E09RPM25.png,7.0,,1
,survey-likert,13,393885,0.0-4.0-9.0,62735,44965.5170833333,44965.5230324074,34387.0,Array,rpms_task,Array,RPMShort_images/G0T1E10RPM30.png,5.0,,1
,survey-likert,14,478797,0.0-4.0-10.0,62735,44965.5170833333,44965.5230324074,84907.0,Array,rpms_task,Array,RPMShort_images/G0T1E11RPM31.png,5.0,,0
,survey-likert,15,510669,0.0-4.0-11.0,62735,44965.5170833333,44965.5230324074,31866.0,Array,rpms_task,Array,RPMShort_images/G0T1E12RPM35.png,2.0,,0
,html-keyboard-response,16,513712,0.0-5.0,62735,44965.5170833333,44965.5230324074,3037.0, ,rpms_debrief,,,,<p style='text-algin:left'>これで実験は終了です。お疲れ様でした。</p><p style='text-algin:left'>スペースキーを押したのち、画面を閉じてください。</p>,0
1.0,fullscreen,0,9460,0.0-0.0,178919,44965.5188888889,44965.522662037,,,,,,,,0
,survey-html-form,1,22264,0.0-1.0,178919,44965.5188888889,44965.522662037,12802.0,Array,rpms_instruction,,,,,0
,survey-html-form,2,31677,0.0-2.0,178919,44965.5188888889,44965.522662037,9411.0,Array,rpms_instruction,,,,,0
,survey-html-form,3,43465,0.0-3.0,178919,44965.5188888889,44965.522662037,11787.0,Array,rpms_instruction,,,,,0
,survey-likert,4,99081,0.0-4.0-0.0,178919,44965.5188888889,44965.522662037,55613.0,Array,rpms_task,Array,RPMShort_images/G0T1E01RPM01.png,5.0,,1
,survey-likert,5,122098,0.0-4.0-1.0,178919,44965.5188888889,44965.522662037,23011.0,Array,rpms_task,Array,RPMShort_images/G0T1E02RPM04.png,6.0,,0
,survey-likert,6,152928,0.0-4.0-2.0,178919,44965.5188888889,44965.522662037,30824.0,Array,rpms_task,Array,RPMShort_images/G0T1E03RPM08.png,7.0,,0
,survey-likert,7,186350,0.0-4.0-3.0,178919,44965.5188888889,44965.522662037,33416.0,Array,rpms_task,Array,RPMShort_images/G0T1E04RPM11.png,5.0,,1
,survey-likert,8,205995,0.0-4.0-4.0,178919,44965.5188888889,44965.522662037,19640.0,Array,rpms_task,Array,RPMShort_images/G0T1E05RPM15.png,7.0,,0
,survey-likert,9,224374,0.0-4.0-5.0,178919,44965.5188888889,44965.522662037,18373.0,Array,rpms_task,Array,RPMShort_images/G0T1E06RPM18.png,3.0,,0
,survey-likert,10,246374,0.0-4.0-6.0,178919,44965.5188888889,44965.522662037,21994.0,Array,rpms_task,Array,RPMShort_images/G0T1E07RPM21.png,1.0,,0
,survey-likert,11,258101,0.0-4.0-7.0,178919,44965.5188888889,44965.522662037,11721.0,Array,rpms_task,Array,RPMShort_images/G0T1E08RPM23.png,5.0,,0
,survey-likert,12,279820,0.0-4.0-8.0,178919,44965.5188888889,44965.522662037,21713.0,Array,rpms_task,Array,RPMShort_images/G0T1E09RPM25.png,3.0,,0
,survey-likert,13,294201,0.0-4.0-9.0,178919,44965.5188888889,44965.522662037,14375.0,Array,rpms_task,Array,RPMShort_images/G0T1E10RPM30.png,8.0,,0
,survey-likert,14,310070,0.0-4.0-10.0,178919,44965.5188888889,44965.522662037,15863.0,Array,rpms_task,Array,RPMShort_images/G0T1E11RPM31.png,6.0,,0
,survey-likert,15,319157,0.0-4.0-11.0,178919,44965.5188888889,44965.522662037,9082.0,Array,rpms_task,Array,RPMShort_images/G0T1E12RPM35.png,1.0,,0
,html-keyboard-response,16,325511,0.0-5.0,178919,44965.5188888889,44965.522662037,6347.0, ,rpms_debrief,,,,<p style='text-algin:left'>これで実験は終了です。お疲れ様でした。</p><p style='text-algin:left'>スペースキーを押したのち、画面を閉じてください。</p>,0
1.0,fullscreen,0,2894,0.0-0.0,2577141,44965.5189351852,44965.5233796296,,,,,,,,0
,survey-html-form,1,7336,0.0-1.0,2577141,44965.5189351852,44965.5233796296,4440.0,Array,rpms_instruction,,,,,0
,survey-html-form,2,17337,0.0-2.0,2577141,44965.5189351852,44965.5233796296,9999.0,Array,rpms_instruction,,,,,0
,survey-html-form,3,26744,0.0-3.0,2577141,44965.5189351852,44965.5233796296,9407.0,Array,rpms_instruction,,,,,0
,survey-likert,4,78968,0.0-4.0-0.0,2577141,44965.5189351852,44965.5233796296,52222.0,Array,rpms_task,Array,RPMShort_images/G0T1E01RPM01.png,5.0,,1
,survey-likert,5,119548,0.0-4.0-1.0,2577141,44965.5189351852,44965.5233796296,40575.0,Array,rpms_task,Array,RPMShort_images/G0T1E02RPM04.png,8.0,,0
,survey-likert,6,157238,0.0-4.0-2.0,2577141,44965.5189351852,44965.5233796296,37686.0,Array,rpms_task,Array,RPMShort_images/G0T1E03RPM08.png,1.0,,1
,survey-likert,7,206593,0.0-4.0-3.0,2577141,44965.5189351852,44965.5233796296,49351.0,Array,rpms_task,Array,RPMShort_images/G0T1E04RPM11.png,5.0,,1
,survey-likert,8,242180,0.0-4.0-4.0,2577141,44965.5189351852,44965.5233796296,35582.0,Array,rpms_task,Array,RPMShort_images/G0T1E05RPM15.png,8.0,,0
,survey-likert,9,262217,0.0-4.0-5.0,2577141,44965.5189351852,44965.5233796296,20030.0,Array,rpms_task,Array,RPMShort_images/G0T1E06RPM18.png,2.0,,0
,survey-likert,10,278846,0.0-4.0-6.0,2577141,44965.5189351852,44965.5233796296,16625.0,Array,rpms_task,Array,RPMShort_images/G0T1E07RPM21.png,1.0,,0
,survey-likert,11,298432,0.0-4.0-7.0,2577141,44965.5189351852,44965.5233796296,19581.0,Array,rpms_task,Array,RPMShort_images/G0T1E08RPM23.png,5.0,,0
,survey-likert,12,316861,0.0-4.0-8.0,2577141,44965.5189351852,44965.5233796296,18436.0,Array,rpms_task,Array,RPMShort_images/G0T1E09RPM25.png,7.0,,1
,survey-likert,13,341375,0.0-4.0-9.0,2577141,44965.5189351852,44965.5233796296,24510.0,Array,rpms_task,Array,RPMShort_images/G0T1E10RPM30.png,4.0,,0
,survey-likert,14,360321,0.0-4.0-10.0,2577141,44965.5189351852,44965.5233796296,18931.0,Array,rpms_task,Array,RPMShort_images/G0T1E11RPM31.png,6.0,,0
,survey-likert,15,380516,0.0-4.0-11.0,2577141,44965.5189351852,44965.5233796296,20190.0,Array,rpms_task,Array,RPMShort_images/G0T1E12RPM35.png,1.0,,0
,html-keyboard-response,16,383916,0.0-5.0,2577141,44965.5189351852,44965.5233796296,3393.0, ,rpms_debrief,,,,<p style='text-algin:left'>これで実験は終了です。お疲れ様でした。</p><p style='text-algin:left'>スペースキーを押したのち、画面を閉じてください。</p>,0
1.0,fullscreen,0,3643,0.0-0.0,4659011,44965.4734837963,44965.481724537,,,,,,,,0
,survey-html-form,1,10120,0.0-1.0,4659011,44965.4734837963,44965.481724537,6476.0,Array,rpms_instruction,,,,,0
,survey-html-form,2,30857,0.0-2.0,4659011,44965.4734837963,44965.481724537,20736.0,Array,rpms_instruction,,,,,0
,survey-html-form,3,35727,0.0-3.0,4659011,44965.4734837963,44965.481724537,4870.0,Array,rpms_instruction,,,,,0
,survey-likert,4,89056,0.0-4.0-0.0,4659011,44965.4734837963,44965.481724537,53327.0,Array,rpms_task,Array,RPMShort_images/G0T1E01RPM01.png,5.0,,1
,survey-likert,5,138944,0.0-4.0-1.0,4659011,44965.4734837963,44965.481724537,49886.0,Array,rpms_task,Array,RPMShort_images/G0T1E02RPM04.png,4.0,,1
,survey-likert,6,179200,0.0-4.0-2.0,4659011,44965.4734837963,44965.481724537,40254.0,Array,rpms_task,Array,RPMShort_images/G0T1E03RPM08.png,1.0,,1
,survey-likert,7,211312,0.0-4.0-3.0,4659011,44965.4734837963,44965.481724537,32110.0,Array,rpms_task,Array,RPMShort_images/G0T1E04RPM11.png,6.0,,0
,survey-likert,8,281088,0.0-4.0-4.0,4659011,44965.4734837963,44965.481724537,69775.0,Array,rpms_task,Array,RPMShort_images/G0T1E05RPM15.png,8.0,,0
,survey-likert,9,334024,0.0-4.0-5.0,4659011,44965.4734837963,44965.481724537,52934.0,Array,rpms_task,Array,RPMShort_images/G0T1E06RPM18.png,2.0,,0
,survey-likert,10,415336,0.0-4.0-6.0,4659011,44965.4734837963,44965.481724537,81310.0,Array,rpms_task,Array,RPMShort_images/G0T1E07RPM21.png,1.0,,0
,survey-likert,11,461849,0.0-4.0-7.0,4659011,44965.4734837963,44965.481724537,46510.0,Array,rpms_task,Array,RPMShort_images/G0T1E08RPM23.png,6.0,,1
,survey-likert,12,501128,0.0-4.0-8.0,4659011,44965.4734837963,44965.481724537,39276.0,Array,rpms_task,Array,RPMShort_images/G0T1E09RPM25.png,7.0,,1
,survey-likert,13,593840,0.0-4.0-9.0,4659011,44965.4734837963,44965.481724537,92709.0,Array,rpms_task,Array,RPMShort_images/G0T1E10RPM30.png,5.0,,1
,survey-likert,14,669752,0.0-4.0-10.0,4659011,44965.4734837963,44965.481724537,75910.0,Array,rpms_task,Array,RPMShort_images/G0T1E11RPM31.png,4.0,,1
,survey-likert,15,709880,0.0-4.0-11.0,4659011,44965.4734837963,44965.481724537,40126.0,Array,rpms_task,Array,RPMShort_images/G0T1E12RPM35.png,3.0,,1
,html-keyboard-response,16,712371,0.0-5.0,4659011,44965.4734837963,44965.481724537,2489.0, ,rpms_debrief,,,,<p style='text-algin:left'>これで実験は終了です。お疲れ様でした。</p><p style='text-algin:left'>スペースキーを押したのち、画面を閉じてください。</p>,0
1.0,fullscreen,0,5714,0.0-0.0,5187258,44965.5185532407,44965.5237615741,,,,,,,,0
,survey-html-form,1,15694,0.0-1.0,5187258,44965.5185532407,44965.5237615741,9980.0,Array,rpms_instruction,,,,,0
,survey-html-form,2,22836,0.0-2.0,5187258,44965.5185532407,44965.5237615741,7142.0,Array,rpms_instruction,,,,,0
,survey-html-form,3,27607,0.0-3.0,5187258,44965.5185532407,44965.5237615741,4770.0,Array,rpms_instruction,,,,,0
,survey-likert,4,93869,0.0-4.0-0.0,5187258,44965.5185532407,44965.5237615741,66261.0,Array,rpms_task,Array,RPMShort_images/G0T1E01RPM01.png,5.0,,1
,survey-likert,5,112868,0.0-4.0-1.0,5187258,44965.5185532407,44965.5237615741,18997.0,Array,rpms_task,Array,RPMShort_images/G0T1E02RPM04.png,4.0,,1
,survey-likert,6,125778,0.0-4.0-2.0,5187258,44965.5185532407,44965.5237615741,12908.0,Array,rpms_task,Array,RPMShort_images/G0T1E03RPM08.png,1.0,,1
,survey-likert,7,141599,0.0-4.0-3.0,5187258,44965.5185532407,44965.5237615741,15819.0,Array,rpms_task,Array,RPMShort_images/G0T1E04RPM11.png,5.0,,1
,survey-likert,8,202895,0.0-4.0-4.0,5187258,44965.5185532407,44965.5237615741,61293.0,Array,rpms_task,Array,RPMShort_images/G0T1E05RPM15.png,2.0,,1
,survey-likert,9,221356,0.0-4.0-5.0,5187258,44965.5185532407,44965.5237615741,18459.0,Array,rpms_task,Array,RPMShort_images/G0T1E06RPM18.png,7.0,,1
,survey-likert,10,239186,0.0-4.0-6.0,5187258,44965.5185532407,44965.5237615741,17828.0,Array,rpms_task,Array,RPMShort_images/G0T1E07RPM21.png,8.0,,1
,survey-likert,11,268472,0.0-4.0-7.0,5187258,44965.5185532407,44965.5237615741,29284.0,Array,rpms_task,Array,RPMShort_images/G0T1E08RPM23.png,6.0,,1
,survey-likert,12,297944,0.0-4.0-8.0,5187258,44965.5185532407,44965.5237615741,29470.0,Array,rpms_task,Array,RPMShort_images/G0T1E09RPM25.png,7.0,,1
,survey-likert,13,347723,0.0-4.0-9.0,5187258,44965.5185532407,44965.5237615741,49777.0,Array,rpms_task,Array,RPMShort_images/G0T1E10RPM30.png,2.0,,0
,survey-likert,14,411609,0.0-4.0-10.0,5187258,44965.5185532407,44965.5237615741,63884.0,Array,rpms_task,Array,RPMShort_images/G0T1E11RPM31.png,4.0,,1
,survey-likert,15,445607,0.0-4.0-11.0,5187258,44965.5185532407,44965.5237615741,33996.0,Array,rpms_task,Array,RPMShort_images/G0T1E12RPM35.png,3.0,,1
,html-keyboard-response,16,449174,0.0-5.0,5187258,44965.5185532407,44965.5237615741,3564.0, ,rpms_debrief,,,,<p style='text-algin:left'>これで実験は終了です。お疲れ様でした。</p><p style='text-algin:left'>スペースキーを押したのち、画面を閉じてください。</p>,0
1.0,fullscreen,0,80323,0.0-0.0,494309,44965.5181597222,44965.5241203704,,,,,,,,0
,survey-html-form,1,86633,0.0-1.0,494309,44965.5181597222,44965.5241203704,6307.0,Array,rpms_instruction,,,,,0
,survey-html-form,2,101111,0.0-2.0,494309,44965.5181597222,44965.5241203704,14477.0,Array,rpms_instruction,,,,,0
,survey-html-form,3,106953,0.0-3.0,494309,44965.5181597222,44965.5241203704,5841.0,Array,rpms_instruction,,,,,0
,survey-likert,4,167046,0.0-4.0-0.0,494309,44965.5181597222,44965.5241203704,60091.0,Array,rpms_task,Array,RPMShort_images/G0T1E01RPM01.png,5.0,,1
,survey-likert,5,199104,0.0-4.0-1.0,494309,44965.5181597222,44965.5241203704,32054.0,Array,rpms_task,Array,RPMShort_images/G0T1E02RPM04.png,8.0,,0
,survey-likert,6,248415,0.0-4.0-2.0,494309,44965.5181597222,44965.5241203704,49307.0,Array,rpms_task,Array,RPMShort_images/G0T1E03RPM08.png,1.0,,1
,survey-likert,7,262240,0.0-4.0-3.0,494309,44965.5181597222,44965.5241203704,13822.0,Array,rpms_task,Array,RPMShort_images/G0T1E04RPM11.png,5.0,,1
,survey-likert,8,284384,0.0-4.0-4.0,494309,44965.5181597222,44965.5241203704,22141.0,Array,rpms_task,Array,RPMShort_images/G0T1E05RPM15.png,8.0,,0
,survey-likert,9,318990,0.0-4.0-5.0,494309,44965.5181597222,44965.5241203704,34603.0,Array,rpms_task,Array,RPMShort_images/G0T1E06RPM18.png,7.0,,1
,survey-likert,10,344791,0.0-4.0-6.0,494309,44965.5181597222,44965.5241203704,25796.0,Array,rpms_task,Array,RPMShort_images/G0T1E07RPM21.png,8.0,,1
,survey-likert,11,393743,0.0-4.0-7.0,494309,44965.5181597222,44965.5241203704,48950.0,Array,rpms_task,Array,RPMShort_images/G0T1E08RPM23.png,5.0,,0
,survey-likert,12,407530,0.0-4.0-8.0,494309,44965.5181597222,44965.5241203704,13783.0,Array,rpms_task,Array,RPMShort_images/G0T1E09RPM25.png,7.0,,1
,survey-likert,13,434831,0.0-4.0-9.0,494309,44965.5181597222,44965.5241203704,27298.0,Array,rpms_task,Array,RPMShort_images/G0T1E10RPM30.png,1.0,,0
,survey-likert,14,481463,0.0-4.0-10.0,494309,44965.5181597222,44965.5241203704,46630.0,Array,rpms_task,Array,RPMShort_images/G0T1E11RPM31.png,6.0,,0
,survey-likert,15,512849,0.0-4.0-11.0,494309,44965.5181597222,44965.5241203704,31382.0,Array,rpms_task,Array,RPMShort_images/G0T1E12RPM35.png,2.0,,0
,html-keyboard-response,16,514852,0.0-5.0,494309,44965.5181597222,44965.5241203704,2000.0, ,rpms_debrief,,,,<p style='text-algin:left'>これで実験は終了です。お疲れ様でした。</p><p style='text-algin:left'>スペースキーを押したのち、画面を閉じてください。</p>,0
1.0,fullscreen,0,3103,0.0-0.0,4087419,44965.5174074074,44965.5241782407,,,,,,,,0
,survey-html-form,1,8369,0.0-1.0,4087419,44965.5174074074,44965.5241782407,5265.0,Array,rpms_instruction,,,,,0
,survey-html-form,2,15367,0.0-2.0,4087419,44965.5174074074,44965.5241782407,6997.0,Array,rpms_instruction,,,,,0
,survey-html-form,3,19545,0.0-3.0,4087419,44965.5174074074,44965.5241782407,4177.0,Array,rpms_instruction,,,,,0
,survey-likert,4,44131,0.0-4.0-0.0,4087419,44965.5174074074,44965.5241782407,24584.0,Array,rpms_task,Array,RPMShort_images/G0T1E01RPM01.png,5.0,,1
,survey-likert,5,92635,0.0-4.0-1.0,4087419,44965.5174074074,44965.5241782407,48501.0,Array,rpms_task,Array,RPMShort_images/G0T1E02RPM04.png,4.0,,1
,survey-likert,6,173801,0.0-4.0-2.0,4087419,44965.5174074074,44965.5241782407,81164.0,Array,rpms_task,Array,RPMShort_images/G0T1E03RPM08.png,1.0,,1
,survey-likert,7,186731,0.0-4.0-3.0,4087419,44965.5174074074,44965.5241782407,12928.0,Array,rpms_task,Array,RPMShort_images/G0T1E04RPM11.png,5.0,,1
,survey-likert,8,243364,0.0-4.0-4.0,4087419,44965.5174074074,44965.5241782407,56630.0,Array,rpms_task,Array,RPMShort_images/G0T1E05RPM15.png,6.0,,0
,survey-likert,9,328249,0.0-4.0-5.0,4087419,44965.5174074074,44965.5241782407,84884.0,Array,rpms_task,Array,RPMShort_images/G0T1E06RPM18.png,5.0,,0
,survey-likert,10,367738,0.0-4.0-6.0,4087419,44965.5174074074,44965.5241782407,39486.0,Array,rpms_task,Array,RPMShort_images/G0T1E07RPM21.png,8.0,,1
,survey-likert,11,382528,0.0-4.0-7.0,4087419,44965.5174074074,44965.5241782407,14788.0,Array,rpms_task,Array,RPMShort_images/G0T1E08RPM23.png,8.0,,0
,survey-likert,12,411741,0.0-4.0-8.0,4087419,44965.5174074074,44965.5241782407,29211.0,Array,rpms_task,Array,RPMShort_images/G0T1E09RPM25.png,5.0,,0
,survey-likert,13,458759,0.0-4.0-9.0,4087419,44965.5174074074,44965.5241782407,47017.0,Array,rpms_task,Array,RPMShort_images/G0T1E10RPM30.png,2.0,,0
,survey-likert,14,532133,0.0-4.0-10.0,4087419,44965.5174074074,44965.5241782407,73373.0,Array,rpms_task,Array,RPMShort_images/G0T1E11RPM31.png,2.0,,0
,survey-likert,15,583159,0.0-4.0-11.0,4087419,44965.5174074074,44965.5241782407,51023.0,Array,rpms_task,Array,RPMShort_images/G0T1E12RPM35.png,3.0,,1
,html-keyboard-response,16,585374,0.0-5.0,4087419,44965.5174074074,44965.5241782407,2213.0, ,rpms_debrief,,,,<p style='text-algin:left'>これで実験は終了です。お疲れ様でした。</p><p style='text-algin:left'>スペースキーを押したのち、画面を閉じてください。</p>,0
1.0,fullscreen,0,5703,0.0-0.0,2933739,44965.5148148148,44965.5245486111,,,,,,,,0
,survey-html-form,1,13563,0.0-1.0,2933739,44965.5148148148,44965.5245486111,7858.0,Array,rpms_instruction,,,,,0
,survey-html-form,2,34307,0.0-2.0,2933739,44965.5148148148,44965.5245486111,20743.0,Array,rpms_instruction,,,,,0
,survey-html-form,3,41475,0.0-3.0,2933739,44965.5148148148,44965.5245486111,7167.0,Array,rpms_instruction,,,,,0
,survey-likert,4,88291,0.0-4.0-0.0,2933739,44965.5148148148,44965.5245486111,46814.0,Array,rpms_task,Array,RPMShort_images/G0T1E01RPM01.png,5.0,,1
,survey-likert,5,138675,0.0-4.0-1.0,2933739,44965.5148148148,44965.5245486111,50378.0,Array,rpms_task,Array,RPMShort_images/G0T1E02RPM04.png,4.0,,1
,survey-likert,6,162283,0.0-4.0-2.0,2933739,44965.5148148148,44965.5245486111,23604.0,Array,rpms_task,Array,RPMShort_images/G0T1E03RPM08.png,1.0,,1
,survey-likert,7,188106,0.0-4.0-3.0,2933739,44965.5148148148,44965.5245486111,25820.0,Array,rpms_task,Array,RPMShort_images/G0T1E04RPM11.png,7.0,,0
,survey-likert,8,252675,0.0-4.0-4.0,2933739,44965.5148148148,44965.5245486111,64565.0,Array,rpms_task,Array,RPMShort_images/G0T1E05RPM15.png,2.0,,1
,survey-likert,9,299025,0.0-4.0-5.0,2933739,44965.5148148148,44965.5245486111,46347.0,Array,rpms_task,Array,RPMShort_images/G0T1E06RPM18.png,7.0,,1
,survey-likert,10,333896,0.0-4.0-6.0,2933739,44965.5148148148,44965.5245486111,34868.0,Array,rpms_task,Array,RPMShort_images/G0T1E07RPM21.png,8.0,,1
,survey-likert,11,368192,0.0-4.0-7.0,2933739,44965.5148148148,44965.5245486111,34292.0,Array,rpms_task,Array,RPMShort_images/G0T1E08RPM23.png,3.0,,0
,survey-likert,12,401552,0.0-4.0-8.0,2933739,44965.5148148148,44965.5245486111,33356.0,Array,rpms_task,Array,RPMShort_images/G0T1E09RPM25.png,7.0,,1
,survey-likert,13,655936,0.0-4.0-9.0,2933739,44965.5148148148,44965.5245486111,254380.0,Array,rpms_task,Array,RPMShort_images/G0T1E10RPM30.png,5.0,,1
,survey-likert,14,747966,0.0-4.0-10.0,2933739,44965.5148148148,44965.5245486111,92027.0,Array,rpms_task,Array,RPMShort_images/G0T1E11RPM31.png,2.0,,0
,survey-likert,15,834790,0.0-4.0-11.0,2933739,44965.5148148148,44965.5245486111,86819.0,Array,rpms_task,Array,RPMShort_images/G0T1E12RPM35.png,1.0,,0
,html-keyboard-response,16,840836,0.0-5.0,2933739,44965.5148148148,44965.5245486111,6042.0, ,rpms_debrief,,,,<p style='text-algin:left'>これで実験は終了です。お疲れ様でした。</p><p style='text-algin:left'>スペースキーを押したのち、画面を閉じてください。</p>,0
1.0,fullscreen,0,9037,0.0-0.0,4733003,44964.9388078704,44964.9412847222,,,,,,,,0
,survey-html-form,1,12524,0.0-1.0,4733003,44964.9388078704,44964.9412847222,3481.0,Array,rpms_instruction,,,,,0
,survey-html-form,2,21200,0.0-2.0,4733003,44964.9388078704,44964.9412847222,8675.0,Array,rpms_instruction,,,,,0
,survey-html-form,3,28556,0.0-3.0,4733003,44964.9388078704,44964.9412847222,7355.0,Array,rpms_instruction,,,,,0
,survey-likert,4,39953,0.0-4.0-0.0,4733003,44964.9388078704,44964.9412847222,11396.0,Array,rpms_task,Array,RPMShort_images/G0T1E01RPM01.png,8.0,,0
,survey-likert,5,55777,0.0-4.0-1.0,4733003,44964.9388078704,44964.9412847222,15820.0,Array,rpms_task,Array,RPMShort_images/G0T1E02RPM04.png,8.0,,0
,survey-likert,6,72257,0.0-4.0-2.0,4733003,44964.9388078704,44964.9412847222,16476.0,Array,rpms_task,Array,RPMShort_images/G0T1E03RPM08.png,1.0,,1
,survey-likert,7,95436,0.0-4.0-3.0,4733003,44964.9388078704,44964.9412847222,23176.0,Array,rpms_task,Array,RPMShort_images/G0T1E04RPM11.png,4.0,,0
,survey-likert,8,111732,0.0-4.0-4.0,4733003,44964.9388078704,44964.9412847222,16292.0,Array,rpms_task,Array,RPMShort_images/G0T1E05RPM15.png,2.0,,1
,survey-likert,9,124754,0.0-4.0-5.0,4733003,44964.9388078704,44964.9412847222,13018.0,Array,rpms_task,Array,RPMShort_images/G0T1E06RPM18.png,7.0,,1
,survey-likert,10,138416,0.0-4.0-6.0,4733003,44964.9388078704,44964.9412847222,13658.0,Array,rpms_task,Array,RPMShort_images/G0T1E07RPM21.png,4.0,,0
,survey-likert,11,151823,0.0-4.0-7.0,4733003,44964.9388078704,44964.9412847222,13404.0,Array,rpms_task,Array,RPMShort_images/G0T1E08RPM23.png,3.0,,0
,survey-likert,12,163388,0.0-4.0-8.0,4733003,44964.9388078704,44964.9412847222,11561.0,Array,rpms_task,Array,RPMShort_images/G0T1E09RPM25.png,6.0,,0
,survey-likert,13,179461,0.0-4.0-9.0,4733003,44964.9388078704,44964.9412847222,16068.0,Array,rpms_task,Array,RPMShort_images/G0T1E10RPM30.png,6.0,,0
,survey-likert,14,193683,0.0-4.0-10.0,4733003,44964.9388078704,44964.9412847222,14219.0,Array,rpms_task,Array,RPMShort_images/G0T1E11RPM31.png,7.0,,0
,survey-likert,15,208130,0.0-4.0-11.0,4733003,44964.9388078704,44964.9412847222,14443.0,Array,rpms_task,Array,RPMShort_images/G0T1E12RPM35.png,2.0,,0
,html-keyboard-response,16,213104,0.0-5.0,4733003,44964.9388078704,44964.9412847222,4969.0, ,rpms_debrief,,,,<p style='text-algin:left'>これで実験は終了です。お疲れ様でした。</p><p style='text-algin:left'>スペースキーを押したのち、画面を閉じてください。</p>,0
1.0,fullscreen,0,2739,0.0-0.0,59422,44965.5193402778,44965.5247337963,,,,,,,,0
,survey-html-form,1,6938,0.0-1.0,59422,44965.5193402778,44965.5247337963,4194.0,Array,rpms_instruction,,,,,0
,survey-html-form,2,11437,0.0-2.0,59422,44965.5193402778,44965.5247337963,4496.0,Array,rpms_instruction,,,,,0
,survey-html-form,3,13391,0.0-3.0,59422,44965.5193402778,44965.5247337963,1950.0,Array,rpms_instruction,,,,,0
,survey-likert,4,48266,0.0-4.0-0.0,59422,44965.5193402778,44965.5247337963,34870.0,Array,rpms_task,Array,RPMShort_images/G0T1E01RPM01.png,5.0,,1
,survey-likert,5,83185,0.0-4.0-1.0,59422,44965.5193402778,44965.5247337963,34905.0,Array,rpms_task,Array,RPMShort_images/G0T1E02RPM04.png,7.0,,0
,survey-likert,6,110971,0.0-4.0-2.0,59422,44965.5193402778,44965.5247337963,27768.0,Array,rpms_task,Array,RPMShort_images/G0T1E03RPM08.png,1.0,,1
,survey-likert,7,134797,0.0-4.0-3.0,59422,44965.5193402778,44965.5247337963,23807.0,Array,rpms_task,Array,RPMShort_images/G0T1E04RPM11.png,5.0,,1
,survey-likert,8,152709,0.0-4.0-4.0,59422,44965.5193402778,44965.5247337963,17891.0,Array,rpms_task,Array,RPMShort_images/G0T1E05RPM15.png,2.0,,1
,survey-likert,9,172658,0.0-4.0-5.0,59422,44965.5193402778,44965.5247337963,19929.0,Array,rpms_task,Array,RPMShort_images/G0T1E06RPM18.png,7.0,,1
,survey-likert,10,207128,0.0-4.0-6.0,59422,44965.5193402778,44965.5247337963,34452.0,Array,rpms_task,Array,RPMShort_images/G0T1E07RPM21.png,8.0,,1
,survey-likert,11,272889,0.0-4.0-7.0,59422,44965.5193402778,44965.5247337963,65746.0,Array,rpms_task,Array,RPMShort_images/G0T1E08RPM23.png,6.0,,1
,survey-likert,12,308332,0.0-4.0-8.0,59422,44965.5193402778,44965.5247337963,35426.0,Array,rpms_task,Array,RPMShort_images/G0T1E09RPM25.png,7.0,,1
,survey-likert,13,386888,0.0-4.0-9.0,59422,44965.5193402778,44965.5247337963,78541.0,Array,rpms_task,Array,RPMShort_images/G0T1E10RPM30.png,5.0,,1
,survey-likert,14,415447,0.0-4.0-10.0,59422,44965.5193402778,44965.5247337963,28544.0,Array,rpms_task,Array,RPMShort_images/G0T1E11RPM31.png,4.0,,1
,survey-likert,15,462520,0.0-4.0-11.0,59422,44965.5193402778,44965.5247337963,47053.0,Array,rpms_task,Array,RPMShort_images/G0T1E12RPM35.png,3.0,,1
,html-keyboard-response,16,465701,0.0-5.0,59422,44965.5193402778,44965.5247337963,3165.0, ,rpms_debrief,,,,<p style='text-algin:left'>これで実験は終了です。お疲れ様でした。</p><p style='text-algin:left'>スペースキーを押したのち、画面を閉じてください。</p>,0
1.0,fullscreen,0,2932,0.0-0.0,4550563,44965.5211921296,44965.5252314815,,,,,,,,0
,survey-html-form,1,7664,0.0-1.0,4550563,44965.5211921296,44965.5252314815,4730.0,Array,rpms_instruction,,,,,0
,survey-html-form,2,14288,0.0-2.0,4550563,44965.5211921296,44965.5252314815,6623.0,Array,rpms_instruction,,,,,0
,survey-html-form,3,25981,0.0-3.0,4550563,44965.5211921296,44965.5252314815,11692.0,Array,rpms_instruction,,,,,0
,survey-likert,4,51461,0.0-4.0-0.0,4550563,44965.5211921296,44965.5252314815,25477.0,Array,rpms_task,Array,RPMShort_images/G0T1E01RPM01.png,5.0,,1
,survey-likert,5,73823,0.0-4.0-1.0,4550563,44965.5211921296,44965.5252314815,22356.0,Array,rpms_task,Array,RPMShort_images/G0T1E02RPM04.png,4.0,,1
,survey-likert,6,93129,0.0-4.0-2.0,4550563,44965.5211921296,44965.5252314815,19301.0,Array,rpms_task,Array,RPMShort_images/G0T1E03RPM08.png,1.0,,1
,survey-likert,7,110700,0.0-4.0-3.0,4550563,44965.5211921296,44965.5252314815,17567.0,Array,rpms_task,Array,RPMShort_images/G0T1E04RPM11.png,5.0,,1
,survey-likert,8,133887,0.0-4.0-4.0,4550563,44965.5211921296,44965.5252314815,22068.0,Array,rpms_task,Array,RPMShort_images/G0T1E05RPM15.png,2.0,,1
,survey-likert,9,152596,0.0-4.0-5.0,4550563,44965.5211921296,44965.5252314815,18703.0,Array,rpms_task,Array,RPMShort_images/G0T1E06RPM18.png,7.0,,1
,survey-likert,10,168493,0.0-4.0-6.0,4550563,44965.5211921296,44965.5252314815,15892.0,Array,rpms_task,Array,RPMShort_images/G0T1E07RPM21.png,4.0,,0
,survey-likert,11,187802,0.0-4.0-7.0,4550563,44965.5211921296,44965.5252314815,19304.0,Array,rpms_task,Array,RPMShort_images/G0T1E08RPM23.png,6.0,,1
,survey-likert,12,211250,0.0-4.0-8.0,4550563,44965.5211921296,44965.5252314815,23444.0,Array,rpms_task,Array,RPMShort_images/G0T1E09RPM25.png,2.0,,0
,survey-likert,13,253436,0.0-4.0-9.0,4550563,44965.5211921296,44965.5252314815,42181.0,Array,rpms_task,Array,RPMShort_images/G0T1E10RPM30.png,5.0,,1
,survey-likert,14,304765,0.0-4.0-10.0,4550563,44965.5211921296,44965.5252314815,51324.0,Array,rpms_task,Array,RPMShort_images/G0T1E11RPM31.png,4.0,,1
,survey-likert,15,345530,0.0-4.0-11.0,4550563,44965.5211921296,44965.5252314815,40760.0,Array,rpms_task,Array,RPMShort_images/G0T1E12RPM35.png,3.0,,1
,html-keyboard-response,16,348909,0.0-5.0,4550563,44965.5211921296,44965.5252314815,3373.0, ,rpms_debrief,,,,<p style='text-algin:left'>これで実験は終了です。お疲れ様でした。</p><p style='text-algin:left'>スペースキーを押したのち、画面を閉じてください。</p>,0
1.0,fullscreen,0,13930,0.0-0.0,135604,44965.5163888889,44965.5252314815,,,,,,,,0
,survey-html-form,1,16850,0.0-1.0,135604,44965.5163888889,44965.5252314815,2917.0,Array,rpms_instruction,,,,,0
,survey-html-form,2,24321,0.0-2.0,135604,44965.5163888889,44965.5252314815,7470.0,Array,rpms_instruction,,,,,0
,survey-html-form,3,28097,0.0-3.0,135604,44965.5163888889,44965.5252314815,3775.0,Array,rpms_instruction,,,,,0
,survey-likert,4,50434,0.0-4.0-0.0,135604,44965.5163888889,44965.5252314815,22334.0,Array,rpms_task,Array,RPMShort_images/G0T1E01RPM01.png,5.0,,1
,survey-likert,5,67034,0.0-4.0-1.0,135604,44965.5163888889,44965.5252314815,16596.0,Array,rpms_task,Array,RPMShort_images/G0T1E02RPM04.png,4.0,,1
,survey-likert,6,96553,0.0-4.0-2.0,135604,44965.5163888889,44965.5252314815,29515.0,Array,rpms_task,Array,RPMShort_images/G0T1E03RPM08.png,1.0,,1
,survey-likert,7,108122,0.0-4.0-3.0,135604,44965.5163888889,44965.5252314815,11563.0,Array,rpms_task,Array,RPMShort_images/G0T1E04RPM11.png,5.0,,1
,survey-likert,8,165249,0.0-4.0-4.0,135604,44965.5163888889,44965.5252314815,57122.0,Array,rpms_task,Array,RPMShort_images/G0T1E05RPM15.png,2.0,,1
,survey-likert,9,191386,0.0-4.0-5.0,135604,44965.5163888889,44965.5252314815,26132.0,Array,rpms_task,Array,RPMShort_images/G0T1E06RPM18.png,7.0,,1
,survey-likert,10,303465,0.0-4.0-6.0,135604,44965.5163888889,44965.5252314815,112072.0,Array,rpms_task,Array,RPMShort_images/G0T1E07RPM21.png,8.0,,1
,survey-likert,11,395328,0.0-4.0-7.0,135604,44965.5163888889,44965.5252314815,91859.0,Array,rpms_task,Array,RPMShort_images/G0T1E08RPM23.png,8.0,,0
,survey-likert,12,415153,0.0-4.0-8.0,135604,44965.5163888889,44965.5252314815,19819.0,Array,rpms_task,Array,RPMShort_images/G0T1E09RPM25.png,7.0,,1
,survey-likert,13,578160,0.0-4.0-9.0,135604,44965.5163888889,44965.5252314815,163001.0,Array,rpms_task,Array,RPMShort_images/G0T1E10RPM30.png,5.0,,1
,survey-likert,14,697585,0.0-4.0-10.0,135604,44965.5163888889,44965.5252314815,119419.0,Array,rpms_task,Array,RPMShort_images/G0T1E11RPM31.png,4.0,,1
,survey-likert,15,762504,0.0-4.0-11.0,135604,44965.5163888889,44965.5252314815,64913.0,Array,rpms_task,Array,RPMShort_images/G0T1E12RPM35.png,3.0,,1
,html-keyboard-response,16,764145,0.0-5.0,135604,44965.5163888889,44965.5252314815,1634.0, ,rpms_debrief,,,,<p style='text-algin:left'>これで実験は終了です。お疲れ様でした。</p><p style='text-algin:left'>スペースキーを押したのち、画面を閉じてください。</p>,0
1.0,fullscreen,0,9837,0.0-0.0,2677151,44965.5192824074,44965.5256712963,,,,,,,,0
,survey-html-form,1,18720,0.0-1.0,2677151,44965.5192824074,44965.5256712963,8879.0,Array,rpms_instruction,,,,,0
,survey-html-form,2,33439,0.0-2.0,2677151,44965.5192824074,44965.5256712963,14718.0,Array,rpms_instruction,,,,,0
,survey-html-form,3,40631,0.0-3.0,2677151,44965.5192824074,44965.5256712963,7190.0,Array,rpms_instruction,,,,,0
,survey-likert,4,97339,0.0-4.0-0.0,2677151,44965.5192824074,44965.5256712963,56699.0,Array,rpms_task,Array,RPMShort_images/G0T1E01RPM01.png,5.0,,1
,survey-likert,5,119804,0.0-4.0-1.0,2677151,44965.5192824074,44965.5256712963,22442.0,Array,rpms_task,Array,RPMShort_images/G0T1E02RPM04.png,4.0,,1
,survey-likert,6,147364,0.0-4.0-2.0,2677151,44965.5192824074,44965.5256712963,27550.0,Array,rpms_task,Array,RPMShort_images/G0T1E03RPM08.png,1.0,,1
,survey-likert,7,163940,0.0-4.0-3.0,2677151,44965.5192824074,44965.5256712963,16566.0,Array,rpms_task,Array,RPMShort_images/G0T1E04RPM11.png,5.0,,1
,survey-likert,8,192477,0.0-4.0-4.0,2677151,44965.5192824074,44965.5256712963,28542.0,Array,rpms_task,Array,RPMShort_images/G0T1E05RPM15.png,2.0,,1
,survey-likert,9,228101,0.0-4.0-5.0,2677151,44965.5192824074,44965.5256712963,35615.0,Array,rpms_task,Array,RPMShort_images/G0T1E06RPM18.png,5.0,,0
,survey-likert,10,258830,0.0-4.0-6.0,2677151,44965.5192824074,44965.5256712963,30710.0,Array,rpms_task,Array,RPMShort_images/G0T1E07RPM21.png,8.0,,1
,survey-likert,11,358840,0.0-4.0-7.0,2677151,44965.5192824074,44965.5256712963,99997.0,Array,rpms_task,Array,RPMShort_images/G0T1E08RPM23.png,1.0,,0
,survey-likert,12,398381,0.0-4.0-8.0,2677151,44965.5192824074,44965.5256712963,39526.0,Array,rpms_task,Array,RPMShort_images/G0T1E09RPM25.png,1.0,,0
,survey-likert,13,431259,0.0-4.0-9.0,2677151,44965.5192824074,44965.5256712963,32868.0,Array,rpms_task,Array,RPMShort_images/G0T1E10RPM30.png,6.0,,0
,survey-likert,14,517296,0.0-4.0-10.0,2677151,44965.5192824074,44965.5256712963,86031.0,Array,rpms_task,Array,RPMShort_images/G0T1E11RPM31.png,5.0,,0
,survey-likert,15,549895,0.0-4.0-11.0,2677151,44965.5192824074,44965.5256712963,32590.0,Array,rpms_task,Array,RPMShort_images/G0T1E12RPM35.png,1.0,,0
,html-keyboard-response,16,552069,0.0-5.0,2677151,44965.5192824074,44965.5256712963,2162.0, ,rpms_debrief,,,,<p style='text-algin:left'>これで実験は終了です。お疲れ様でした。</p><p style='text-algin:left'>スペースキーを押したのち、画面を閉じてください。</p>,0
1.0,fullscreen,0,9014,0.0-0.0,1112799,44965.5175231481,44965.5253472222,,,,,,,,0
,survey-html-form,1,18853,0.0-1.0,1112799,44965.5175231481,44965.5253472222,9839.0,Array,rpms_instruction,,,,,0
,survey-html-form,2,40903,0.0-2.0,1112799,44965.5175231481,44965.5253472222,22049.0,Array,rpms_instruction,,,,,0
,survey-html-form,3,43987,0.0-3.0,1112799,44965.5175231481,44965.5253472222,3083.0,Array,rpms_instruction,,,,,0
,survey-likert,4,95754,0.0-4.0-0.0,1112799,44965.5175231481,44965.5253472222,51765.0,Array,rpms_task,Array,RPMShort_images/G0T1E01RPM01.png,5.0,,1
,survey-likert,5,132852,0.0-4.0-1.0,1112799,44965.5175231481,44965.5253472222,37095.0,Array,rpms_task,Array,RPMShort_images/G0T1E02RPM04.png,4.0,,1
,survey-likert,6,184446,0.0-4.0-2.0,1112799,44965.5175231481,44965.5253472222,51592.0,Array,rpms_task,Array,RPMShort_images/G0T1E03RPM08.png,1.0,,1
,survey-likert,7,224421,0.0-4.0-3.0,1112799,44965.5175231481,44965.5253472222,39973.0,Array,rpms_task,Array,RPMShort_images/G0T1E04RPM11.png,5.0,,1
,survey-likert,8,315818,0.0-4.0-4.0,1112799,44965.5175231481,44965.5253472222,91395.0,Array,rpms_task,Array,RPMShort_images/G0T1E05RPM15.png,8.0,,0
,survey-likert,9,351224,0.0-4.0-5.0,1112799,44965.5175231481,44965.5253472222,35404.0,Array,rpms_task,Array,RPMShort_images/G0T1E06RPM18.png,7.0,,1
,survey-likert,10,431342,0.0-4.0-6.0,1112799,44965.5175231481,44965.5253472222,80116.0,Array,rpms_task,Array,RPMShort_images/G0T1E07RPM21.png,1.0,,0
,survey-likert,11,501684,0.0-4.0-7.0,1112799,44965.5175231481,44965.5253472222,70340.0,Array,rpms_task,Array,RPMShort_images/G0T1E08RPM23.png,5.0,,0
,survey-likert,12,532134,0.0-4.0-8.0,1112799,44965.5175231481,44965.5253472222,30447.0,Array,rpms_task,Array,RPMShort_images/G0T1E09RPM25.png,7.0,,1
,survey-likert,13,582162,0.0-4.0-9.0,1112799,44965.5175231481,44965.5253472222,50026.0,Array,rpms_task,Array,RPMShort_images/G0T1E10RPM30.png,7.0,,0
,survey-likert,14,644460,0.0-4.0-10.0,1112799,44965.5175231481,44965.5253472222,62295.0,Array,rpms_task,Array,RPMShort_images/G0T1E11RPM31.png,8.0,,0
,survey-likert,15,672516,0.0-4.0-11.0,1112799,44965.5175231481,44965.5253472222,28055.0,Array,rpms_task,Array,RPMShort_images/G0T1E12RPM35.png,1.0,,0
,html-keyboard-response,16,676107,0.0-5.0,1112799,44965.5175231481,44965.5253472222,3587.0, ,rpms_debrief,,,,<p style='text-algin:left'>これで実験は終了です。お疲れ様でした。</p><p style='text-algin:left'>スペースキーを押したのち、画面を閉じてください。</p>,0
1.0,fullscreen,0,10288,0.0-0.0,1304218,44965.5190509259,44965.5259837963,,,,,,,,0
,survey-html-form,1,16750,0.0-1.0,1304218,44965.5190509259,44965.5259837963,6459.0,Array,rpms_instruction,,,,,0
,survey-html-form,2,42324,0.0-2.0,1304218,44965.5190509259,44965.5259837963,25573.0,Array,rpms_instruction,,,,,0
,survey-html-form,3,52174,0.0-3.0,1304218,44965.5190509259,44965.5259837963,9849.0,Array,rpms_instruction,,,,,0
,survey-likert,4,85580,0.0-4.0-0.0,1304218,44965.5190509259,44965.5259837963,33405.0,Array,rpms_task,Array,RPMShort_images/G0T1E01RPM01.png,8.0,,0
,survey-likert,5,130023,0.0-4.0-1.0,1304218,44965.5190509259,44965.5259837963,44438.0,Array,rpms_task,Array,RPMShort_images/G0T1E02RPM04.png,4.0,,1
,survey-likert,6,175474,0.0-4.0-2.0,1304218,44965.5190509259,44965.5259837963,45448.0,Array,rpms_task,Array,RPMShort_images/G0T1E03RPM08.png,1.0,,1
,survey-likert,7,202539,0.0-4.0-3.0,1304218,44965.5190509259,44965.5259837963,27061.0,Array,rpms_task,Array,RPMShort_images/G0T1E04RPM11.png,5.0,,1
,survey-likert,8,250056,0.0-4.0-4.0,1304218,44965.5190509259,44965.5259837963,47515.0,Array,rpms_task,Array,RPMShort_images/G0T1E05RPM15.png,7.0,,0
,survey-likert,9,311188,0.0-4.0-5.0,1304218,44965.5190509259,44965.5259837963,61129.0,Array,rpms_task,Array,RPMShort_images/G0T1E06RPM18.png,2.0,,0
,survey-likert,10,366672,0.0-4.0-6.0,1304218,44965.5190509259,44965.5259837963,55481.0,Array,rpms_task,Array,RPMShort_images/G0T1E07RPM21.png,4.0,,0
,survey-likert,11,407834,0.0-4.0-7.0,1304218,44965.5190509259,44965.5259837963,41159.0,Array,rpms_task,Array,RPMShort_images/G0T1E08RPM23.png,6.0,,1
,survey-likert,12,428344,0.0-4.0-8.0,1304218,44965.5190509259,44965.5259837963,20507.0,Array,rpms_task,Array,RPMShort_images/G0T1E09RPM25.png,7.0,,1
,survey-likert,13,491512,0.0-4.0-9.0,1304218,44965.5190509259,44965.5259837963,63165.0,Array,rpms_task,Array,RPMShort_images/G0T1E10RPM30.png,4.0,,0
,survey-likert,14,533845,0.0-4.0-10.0,1304218,44965.5190509259,44965.5259837963,42329.0,Array,rpms_task,Array,RPMShort_images/G0T1E11RPM31.png,3.0,,0
,survey-likert,15,596440,0.0-4.0-11.0,1304218,44965.5190509259,44965.5259837963,62592.0,Array,rpms_task,Array,RPMShort_images/G0T1E12RPM35.png,4.0,,0
,html-keyboard-response,16,599641,0.0-5.0,1304218,44965.5190509259,44965.5259837963,3196.0, ,rpms_debrief,,,,<p style='text-algin:left'>これで実験は終了です。お疲れ様でした。</p><p style='text-algin:left'>スペースキーを押したのち、画面を閉じてください。</p>,0
1.0,fullscreen,0,33949,0.0-0.0,769122,44965.5181365741,44965.5264930556,,,,,,,,0
,survey-html-form,1,36186,0.0-1.0,769122,44965.5181365741,44965.5264930556,2234.0,Array,rpms_instruction,,,,,0
,survey-html-form,2,57689,0.0-2.0,769122,44965.5181365741,44965.5264930556,21500.0,Array,rpms_instruction,,,,,0
,survey-html-form,3,62795,0.0-3.0,769122,44965.5181365741,44965.5264930556,5104.0,Array,rpms_instruction,,,,,0
,survey-likert,4,138711,0.0-4.0-0.0,769122,44965.5181365741,44965.5264930556,75906.0,Array,rpms_task,Array,RPMShort_images/G0T1E01RPM01.png,5.0,,1
,survey-likert,5,164900,0.0-4.0-1.0,769122,44965.5181365741,44965.5264930556,26174.0,Array,rpms_task,Array,RPMShort_images/G0T1E02RPM04.png,4.0,,1
,survey-likert,6,218228,0.0-4.0-2.0,769122,44965.5181365741,44965.5264930556,53320.0,Array,rpms_task,Array,RPMShort_images/G0T1E03RPM08.png,1.0,,1
,survey-likert,7,234932,0.0-4.0-3.0,769122,44965.5181365741,44965.5264930556,16691.0,Array,rpms_task,Array,RPMShort_images/G0T1E04RPM11.png,5.0,,1
,survey-likert,8,263529,0.0-4.0-4.0,769122,44965.5181365741,44965.5264930556,28586.0,Array,rpms_task,Array,RPMShort_images/G0T1E05RPM15.png,2.0,,1
,survey-likert,9,318127,0.0-4.0-5.0,769122,44965.5181365741,44965.5264930556,54587.0,Array,rpms_task,Array,RPMShort_images/G0T1E06RPM18.png,7.0,,1
,survey-likert,10,382623,0.0-4.0-6.0,769122,44965.5181365741,44965.5264930556,64483.0,Array,rpms_task,Array,RPMShort_images/G0T1E07RPM21.png,8.0,,1
,survey-likert,11,418743,0.0-4.0-7.0,769122,44965.5181365741,44965.5264930556,36108.0,Array,rpms_task,Array,RPMShort_images/G0T1E08RPM23.png,6.0,,1
,survey-likert,12,443651,0.0-4.0-8.0,769122,44965.5181365741,44965.5264930556,24897.0,Array,rpms_task,Array,RPMShort_images/G0T1E09RPM25.png,2.0,,0
,survey-likert,13,495663,0.0-4.0-9.0,769122,44965.5181365741,44965.5264930556,52001.0,Array,rpms_task,Array,RPMShort_images/G0T1E10RPM30.png,2.0,,0
,survey-likert,14,577173,0.0-4.0-10.0,769122,44965.5181365741,44965.5264930556,81508.0,Array,rpms_task,Array,RPMShort_images/G0T1E11RPM31.png,7.0,,0
,survey-likert,15,633407,0.0-4.0-11.0,769122,44965.5181365741,44965.5264930556,56215.0,Array,rpms_task,Array,RPMShort_images/G0T1E12RPM35.png,1.0,,0
,html-keyboard-response,16,721596,0.0-5.0,769122,44965.5181365741,44965.5264930556,88176.0, ,rpms_debrief,,,,<p style='text-algin:left'>これで実験は終了です。お疲れ様でした。</p><p style='text-algin:left'>スペースキーを押したのち、画面を閉じてください。</p>,0
1.0,fullscreen,0,5557,0.0-0.0,244690,44965.5184027778,44965.5264930556,,,,,,,,0
,survey-html-form,1,14827,0.0-1.0,244690,44965.5184027778,44965.5264930556,9266.0,Array,rpms_instruction,,,,,0
,survey-html-form,2,35994,0.0-2.0,244690,44965.5184027778,44965.5264930556,21164.0,Array,rpms_instruction,,,,,0
,survey-html-form,3,42906,0.0-3.0,244690,44965.5184027778,44965.5264930556,6910.0,Array,rpms_instruction,,,,,0
,survey-likert,4,118147,0.0-4.0-0.0,244690,44965.5184027778,44965.5264930556,75235.0,Array,rpms_task,Array,RPMShort_images/G0T1E01RPM01.png,5.0,,1
,survey-likert,5,140634,0.0-4.0-1.0,244690,44965.5184027778,44965.5264930556,22477.0,Array,rpms_task,Array,RPMShort_images/G0T1E02RPM04.png,8.0,,0
,survey-likert,6,158753,0.0-4.0-2.0,244690,44965.5184027778,44965.5264930556,18112.0,Array,rpms_task,Array,RPMShort_images/G0T1E03RPM08.png,1.0,,1
,survey-likert,7,196417,0.0-4.0-3.0,244690,44965.5184027778,44965.5264930556,37656.0,Array,rpms_task,Array,RPMShort_images/G0T1E04RPM11.png,5.0,,1
,survey-likert,8,236689,0.0-4.0-4.0,244690,44965.5184027778,44965.5264930556,40264.0,Array,rpms_task,Array,RPMShort_images/G0T1E05RPM15.png,2.0,,1
,survey-likert,9,300257,0.0-4.0-5.0,244690,44965.5184027778,44965.5264930556,63559.0,Array,rpms_task,Array,RPMShort_images/G0T1E06RPM18.png,7.0,,1
,survey-likert,10,365272,0.0-4.0-6.0,244690,44965.5184027778,44965.5264930556,65008.0,Array,rpms_task,Array,RPMShort_images/G0T1E07RPM21.png,4.0,,0
,survey-likert,11,450527,0.0-4.0-7.0,244690,44965.5184027778,44965.5264930556,85248.0,Array,rpms_task,Array,RPMShort_images/G0T1E08RPM23.png,6.0,,1
,survey-likert,12,532567,0.0-4.0-8.0,244690,44965.5184027778,44965.5264930556,82032.0,Array,rpms_task,Array,RPMShort_images/G0T1E09RPM25.png,7.0,,1
,survey-likert,13,581887,0.0-4.0-9.0,244690,44965.5184027778,44965.5264930556,49312.0,Array,rpms_task,Array,RPMShort_images/G0T1E10RPM30.png,5.0,,1
,survey-likert,14,644926,0.0-4.0-10.0,244690,44965.5184027778,44965.5264930556,63032.0,Array,rpms_task,Array,RPMShort_images/G0T1E11RPM31.png,5.0,,0
,survey-likert,15,694822,0.0-4.0-11.0,244690,44965.5184027778,44965.5264930556,49889.0,Array,rpms_task,Array,RPMShort_images/G0T1E12RPM35.png,7.0,,0
,html-keyboard-response,16,698759,0.0-5.0,244690,44965.5184027778,44965.5264930556,3928.0, ,rpms_debrief,,,,<p style='text-algin:left'>これで実験は終了です。お疲れ様でした。</p><p style='text-algin:left'>スペースキーを押したのち、画面を閉じてください。</p>,0
1.0,fullscreen,0,3742,0.0-0.0,cel888,44965.5195486111,44965.5269907407,,,,,,,,0
,survey-html-form,1,10691,0.0-1.0,cel888,44965.5195486111,44965.5269907407,6947.0,Array,rpms_instruction,,,,,0
,survey-html-form,2,15243,0.0-2.0,cel888,44965.5195486111,44965.5269907407,4552.0,Array,rpms_instruction,,,,,0
,survey-html-form,3,17979,0.0-3.0,cel888,44965.5195486111,44965.5269907407,2735.0,Array,rpms_instruction,,,,,0
,survey-likert,4,47251,0.0-4.0-0.0,cel888,44965.5195486111,44965.5269907407,29271.0,Array,rpms_task,Array,RPMShort_images/G0T1E01RPM01.png,5.0,,1
,survey-likert,5,79652,0.0-4.0-1.0,cel888,44965.5195486111,44965.5269907407,32397.0,Array,rpms_task,Array,RPMShort_images/G0T1E02RPM04.png,4.0,,1
,survey-likert,6,117891,0.0-4.0-2.0,cel888,44965.5195486111,44965.5269907407,38236.0,Array,rpms_task,Array,RPMShort_images/G0T1E03RPM08.png,1.0,,1
,survey-likert,7,133843,0.0-4.0-3.0,cel888,44965.5195486111,44965.5269907407,15949.0,Array,rpms_task,Array,RPMShort_images/G0T1E04RPM11.png,5.0,,1
,survey-likert,8,167235,0.0-4.0-4.0,cel888,44965.5195486111,44965.5269907407,33389.0,Array,rpms_task,Array,RPMShort_images/G0T1E05RPM15.png,2.0,,1
,survey-likert,9,217731,0.0-4.0-5.0,cel888,44965.5195486111,44965.5269907407,50493.0,Array,rpms_task,Array,RPMShort_images/G0T1E06RPM18.png,7.0,,1
,survey-likert,10,366964,0.0-4.0-6.0,cel888,44965.5195486111,44965.5269907407,149230.0,Array,rpms_task,Array,RPMShort_images/G0T1E07RPM21.png,1.0,,0
,survey-likert,11,435859,0.0-4.0-7.0,cel888,44965.5195486111,44965.5269907407,68892.0,Array,rpms_task,Array,RPMShort_images/G0T1E08RPM23.png,6.0,,1
,survey-likert,12,467251,0.0-4.0-8.0,cel888,44965.5195486111,44965.5269907407,31389.0,Array,rpms_task,Array,RPMShort_images/G0T1E09RPM25.png,7.0,,1
,survey-likert,13,515939,0.0-4.0-9.0,cel888,44965.5195486111,44965.5269907407,48686.0,Array,rpms_task,Array,RPMShort_images/G0T1E10RPM30.png,4.0,,0
,survey-likert,14,595588,0.0-4.0-10.0,cel888,44965.5195486111,44965.5269907407,79646.0,Array,rpms_task,Array,RPMShort_images/G0T1E11RPM31.png,6.0,,0
,survey-likert,15,640083,0.0-4.0-11.0,cel888,44965.5195486111,44965.5269907407,44492.0,Array,rpms_task,Array,RPMShort_images/G0T1E12RPM35.png,3.0,,1
,html-keyboard-response,16,642983,0.0-5.0,cel888,44965.5195486111,44965.5269907407,2896.0, ,rpms_debrief,,,,<p style='text-algin:left'>これで実験は終了です。お疲れ様でした。</p><p style='text-algin:left'>スペースキーを押したのち、画面を閉じてください。</p>,0
1.0,fullscreen,0,3899,0.0-0.0,1228585,44965.5191435185,44965.5271296296,,,,,,,,0
,survey-html-form,1,9892,0.0-1.0,1228585,44965.5191435185,44965.5271296296,5989.0,Array,rpms_instruction,,,,,0
,survey-html-form,2,25540,0.0-2.0,1228585,44965.5191435185,44965.5271296296,15646.0,Array,rpms_instruction,,,,,0
,survey-html-form,3,32899,0.0-3.0,1228585,44965.5191435185,44965.5271296296,7359.0,Array,rpms_instruction,,,,,0
,survey-likert,4,71404,0.0-4.0-0.0,1228585,44965.5191435185,44965.5271296296,38502.0,Array,rpms_task,Array,RPMShort_images/G0T1E01RPM01.png,5.0,,1
,survey-likert,5,156339,0.0-4.0-1.0,1228585,44965.5191435185,44965.5271296296,84930.0,Array,rpms_task,Array,RPMShort_images/G0T1E02RPM04.png,8.0,,0
,survey-likert,6,183120,0.0-4.0-2.0,1228585,44965.5191435185,44965.5271296296,26775.0,Array,rpms_task,Array,RPMShort_images/G0T1E03RPM08.png,1.0,,1
,survey-likert,7,246888,0.0-4.0-3.0,1228585,44965.5191435185,44965.5271296296,63763.0,Array,rpms_task,Array,RPMShort_images/G0T1E04RPM11.png,5.0,,1
,survey-likert,8,297077,0.0-4.0-4.0,1228585,44965.5191435185,44965.5271296296,50184.0,Array,rpms_task,Array,RPMShort_images/G0T1E05RPM15.png,8.0,,0
,survey-likert,9,342012,0.0-4.0-5.0,1228585,44965.5191435185,44965.5271296296,44931.0,Array,rpms_task,Array,RPMShort_images/G0T1E06RPM18.png,7.0,,1
,survey-likert,10,373024,0.0-4.0-6.0,1228585,44965.5191435185,44965.5271296296,31007.0,Array,rpms_task,Array,RPMShort_images/G0T1E07RPM21.png,8.0,,1
,survey-likert,11,407120,0.0-4.0-7.0,1228585,44965.5191435185,44965.5271296296,34091.0,Array,rpms_task,Array,RPMShort_images/G0T1E08RPM23.png,8.0,,0
,survey-likert,12,432977,0.0-4.0-8.0,1228585,44965.5191435185,44965.5271296296,25852.0,Array,rpms_task,Array,RPMShort_images/G0T1E09RPM25.png,7.0,,1
,survey-likert,13,501896,0.0-4.0-9.0,1228585,44965.5191435185,44965.5271296296,68915.0,Array,rpms_task,Array,RPMShort_images/G0T1E10RPM30.png,5.0,,1
,survey-likert,14,613691,0.0-4.0-10.0,1228585,44965.5191435185,44965.5271296296,111791.0,Array,rpms_task,Array,RPMShort_images/G0T1E11RPM31.png,3.0,,0
,survey-likert,15,686592,0.0-4.0-11.0,1228585,44965.5191435185,44965.5271296296,72896.0,Array,rpms_task,Array,RPMShort_images/G0T1E12RPM35.png,7.0,,0
,html-keyboard-response,16,689200,0.0-5.0,1228585,44965.5191435185,44965.5271296296,2602.0, ,rpms_debrief,,,,<p style='text-algin:left'>これで実験は終了です。お疲れ様でした。</p><p style='text-algin:left'>スペースキーを押したのち、画面を閉じてください。</p>,0
1.0,fullscreen,0,6599,0.0-0.0,5108946,44964.9403703704,44964.9442939815,,,,,,,,0
,survey-html-form,1,11901,0.0-1.0,5108946,44964.9403703704,44964.9442939815,5300.0,Array,rpms_instruction,,,,,0
,survey-html-form,2,22538,0.0-2.0,5108946,44964.9403703704,44964.9442939815,10634.0,Array,rpms_instruction,,,,,0
,survey-html-form,3,30854,0.0-3.0,5108946,44964.9403703704,44964.9442939815,8315.0,Array,rpms_instruction,,,,,0
,survey-likert,4,52062,0.0-4.0-0.0,5108946,44964.9403703704,44964.9442939815,21206.0,Array,rpms_task,Array,RPMShort_images/G0T1E01RPM01.png,5.0,,1
,survey-likert,5,72447,0.0-4.0-1.0,5108946,44964.9403703704,44964.9442939815,20382.0,Array,rpms_task,Array,RPMShort_images/G0T1E02RPM04.png,8.0,,0
,survey-likert,6,118281,0.0-4.0-2.0,5108946,44964.9403703704,44964.9442939815,45831.0,Array,rpms_task,Array,RPMShort_images/G0T1E03RPM08.png,1.0,,1
,survey-likert,7,133887,0.0-4.0-3.0,5108946,44964.9403703704,44964.9442939815,15603.0,Array,rpms_task,Array,RPMShort_images/G0T1E04RPM11.png,5.0,,1
,survey-likert,8,150345,0.0-4.0-4.0,5108946,44964.9403703704,44964.9442939815,16456.0,Array,rpms_task,Array,RPMShort_images/G0T1E05RPM15.png,2.0,,1
,survey-likert,9,167081,0.0-4.0-5.0,5108946,44964.9403703704,44964.9442939815,16733.0,Array,rpms_task,Array,RPMShort_images/G0T1E06RPM18.png,7.0,,1
,survey-likert,10,191326,0.0-4.0-6.0,5108946,44964.9403703704,44964.9442939815,24243.0,Array,rpms_task,Array,RPMShort_images/G0T1E07RPM21.png,4.0,,0
,survey-likert,11,218898,0.0-4.0-7.0,5108946,44964.9403703704,44964.9442939815,27568.0,Array,rpms_task,Array,RPMShort_images/G0T1E08RPM23.png,3.0,,0
,survey-likert,12,239467,0.0-4.0-8.0,5108946,44964.9403703704,44964.9442939815,20567.0,Array,rpms_task,Array,RPMShort_images/G0T1E09RPM25.png,7.0,,1
,survey-likert,13,268222,0.0-4.0-9.0,5108946,44964.9403703704,44964.9442939815,28755.0,Array,rpms_task,Array,RPMShort_images/G0T1E10RPM30.png,5.0,,1
,survey-likert,14,308215,0.0-4.0-10.0,5108946,44964.9403703704,44964.9442939815,39993.0,Array,rpms_task,Array,RPMShort_images/G0T1E11RPM31.png,4.0,,1
,survey-likert,15,337332,0.0-4.0-11.0,5108946,44964.9403703704,44964.9442939815,29114.0,Array,rpms_task,Array,RPMShort_images/G0T1E12RPM35.png,4.0,,0
,html-keyboard-response,16,339510,0.0-5.0,5108946,44964.9403703704,44964.9442939815,2176.0, ,rpms_debrief,,,,<p style='text-algin:left'>これで実験は終了です。お疲れ様でした。</p><p style='text-algin:left'>スペースキーを押したのち、画面を閉じてください。</p>,0
1.0,fullscreen,0,3674,0.0-0.0,492846,44965.5179861111,44965.5280439815,,,,,,,,0
,survey-html-form,1,14010,0.0-1.0,492846,44965.5179861111,44965.5280439815,10321.0,Array,rpms_instruction,,,,,0
,survey-html-form,2,26521,0.0-2.0,492846,44965.5179861111,44965.5280439815,12507.0,Array,rpms_instruction,,,,,0
,survey-html-form,3,33562,0.0-3.0,492846,44965.5179861111,44965.5280439815,7036.0,Array,rpms_instruction,,,,,0
,survey-likert,4,73107,0.0-4.0-0.0,492846,44965.5179861111,44965.5280439815,39537.0,Array,rpms_task,Array,RPMShort_images/G0T1E01RPM01.png,5.0,,1
,survey-likert,5,148107,0.0-4.0-1.0,492846,44965.5179861111,44965.5280439815,74984.0,Array,rpms_task,Array,RPMShort_images/G0T1E02RPM04.png,4.0,,1
,survey-likert,6,229289,0.0-4.0-2.0,492846,44965.5179861111,44965.5280439815,81171.0,Array,rpms_task,Array,RPMShort_images/G0T1E03RPM08.png,1.0,,1
,survey-likert,7,255097,0.0-4.0-3.0,492846,44965.5179861111,44965.5280439815,25798.0,Array,rpms_task,Array,RPMShort_images/G0T1E04RPM11.png,5.0,,1
,survey-likert,8,298568,0.0-4.0-4.0,492846,44965.5179861111,44965.5280439815,43459.0,Array,rpms_task,Array,RPMShort_images/G0T1E05RPM15.png,2.0,,1
,survey-likert,9,374378,0.0-4.0-5.0,492846,44965.5179861111,44965.5280439815,75798.0,Array,rpms_task,Array,RPMShort_images/G0T1E06RPM18.png,7.0,,1
,survey-likert,10,466704,0.0-4.0-6.0,492846,44965.5179861111,44965.5280439815,92315.0,Array,rpms_task,Array,RPMShort_images/G0T1E07RPM21.png,4.0,,0
,survey-likert,11,534672,0.0-4.0-7.0,492846,44965.5179861111,44965.5280439815,67956.0,Array,rpms_task,Array,RPMShort_images/G0T1E08RPM23.png,6.0,,1
,survey-likert,12,612609,0.0-4.0-8.0,492846,44965.5179861111,44965.5280439815,77925.0,Array,rpms_task,Array,RPMShort_images/G0T1E09RPM25.png,7.0,,1
,survey-likert,13,708114,0.0-4.0-9.0,492846,44965.5179861111,44965.5280439815,95492.0,Array,rpms_task,Array,RPMShort_images/G0T1E10RPM30.png,3.0,,0
,survey-likert,14,764528,0.0-4.0-10.0,492846,44965.5179861111,44965.5280439815,56404.0,Array,rpms_task,Array,RPMShort_images/G0T1E11RPM31.png,5.0,,0
,survey-likert,15,863144,0.0-4.0-11.0,492846,44965.5179861111,44965.5280439815,98604.0,Array,rpms_task,Array,RPMShort_images/G0T1E12RPM35.png,3.0,,1
,html-keyboard-response,16,868678,0.0-5.0,492846,44965.5179861111,44965.5280439815,5519.0, ,rpms_debrief,,,,<p style='text-algin:left'>これで実験は終了です。お疲れ様でした。</p><p style='text-algin:left'>スペースキーを押したのち、画面を閉じてください。</p>,0
1.0,fullscreen,0,6517,0.0-0.0,1526455,44965.5184722222,44965.5282291667,,,,,,,,0
,survey-html-form,1,133468,0.0-1.0,1526455,44965.5184722222,44965.5282291667,126949.0,Array,rpms_instruction,,,,,0
,survey-html-form,2,152798,0.0-2.0,1526455,44965.5184722222,44965.5282291667,19329.0,Array,rpms_instruction,,,,,0
,survey-html-form,3,160567,0.0-3.0,1526455,44965.5184722222,44965.5282291667,7768.0,Array,rpms_instruction,,,,,0
,survey-likert,4,188534,0.0-4.0-0.0,1526455,44965.5184722222,44965.5282291667,27966.0,Array,rpms_task,Array,RPMShort_images/G0T1E01RPM01.png,5.0,,1
,survey-likert,5,261346,0.0-4.0-1.0,1526455,44965.5184722222,44965.5282291667,72809.0,Array,rpms_task,Array,RPMShort_images/G0T1E02RPM04.png,4.0,,1
,survey-likert,6,298264,0.0-4.0-2.0,1526455,44965.5184722222,44965.5282291667,36915.0,Array,rpms_task,Array,RPMShort_images/G0T1E03RPM08.png,1.0,,1
,survey-likert,7,308006,0.0-4.0-3.0,1526455,44965.5184722222,44965.5282291667,9740.0,Array,rpms_task,Array,RPMShort_images/G0T1E04RPM11.png,5.0,,1
,survey-likert,8,336124,0.0-4.0-4.0,1526455,44965.5184722222,44965.5282291667,28116.0,Array,rpms_task,Array,RPMShort_images/G0T1E05RPM15.png,8.0,,0
,survey-likert,9,389103,0.0-4.0-5.0,1526455,44965.5184722222,44965.5282291667,52975.0,Array,rpms_task,Array,RPMShort_images/G0T1E06RPM18.png,7.0,,1
,survey-likert,10,416445,0.0-4.0-6.0,1526455,44965.5184722222,44965.5282291667,27339.0,Array,rpms_task,Array,RPMShort_images/G0T1E07RPM21.png,8.0,,1
,survey-likert,11,512694,0.0-4.0-7.0,1526455,44965.5184722222,44965.5282291667,96247.0,Array,rpms_task,Array,RPMShort_images/G0T1E08RPM23.png,2.0,,0
,survey-likert,12,550412,0.0-4.0-8.0,1526455,44965.5184722222,44965.5282291667,37715.0,Array,rpms_task,Array,RPMShort_images/G0T1E09RPM25.png,7.0,,1
,survey-likert,13,650835,0.0-4.0-9.0,1526455,44965.5184722222,44965.5282291667,100419.0,Array,rpms_task,Array,RPMShort_images/G0T1E10RPM30.png,5.0,,1
,survey-likert,14,721906,0.0-4.0-10.0,1526455,44965.5184722222,44965.5282291667,71070.0,Array,rpms_task,Array,RPMShort_images/G0T1E11RPM31.png,4.0,,1
,survey-likert,15,841967,0.0-4.0-11.0,1526455,44965.5184722222,44965.5282291667,120058.0,Array,rpms_task,Array,RPMShort_images/G0T1E12RPM35.png,2.0,,0
,html-keyboard-response,16,843497,0.0-5.0,1526455,44965.5184722222,44965.5282291667,1527.0, ,rpms_debrief,,,,<p style='text-algin:left'>これで実験は終了です。お疲れ様でした。</p><p style='text-algin:left'>スペースキーを押したのち、画面を閉じてください。</p>,0
1.0,fullscreen,0,4675,0.0-0.0,148287,44965.5176967593,44965.5282291667,,,,,,,,0
,survey-html-form,1,33761,0.0-1.0,148287,44965.5176967593,44965.5282291667,29083.0,Array,rpms_instruction,,,,,0
,survey-html-form,2,48057,0.0-2.0,148287,44965.5176967593,44965.5282291667,14294.0,Array,rpms_instruction,,,,,0
,survey-html-form,3,54899,0.0-3.0,148287,44965.5176967593,44965.5282291667,6841.0,Array,rpms_instruction,,,,,0
,survey-likert,4,107542,0.0-4.0-0.0,148287,44965.5176967593,44965.5282291667,52640.0,Array,rpms_task,Array,RPMShort_images/G0T1E01RPM01.png,5.0,,1
,survey-likert,5,219961,0.0-4.0-1.0,148287,44965.5176967593,44965.5282291667,112416.0,Array,rpms_task,Array,RPMShort_images/G0T1E02RPM04.png,8.0,,0
,survey-likert,6,263455,0.0-4.0-2.0,148287,44965.5176967593,44965.5282291667,43491.0,Array,rpms_task,Array,RPMShort_images/G0T1E03RPM08.png,1.0,,1
,survey-likert,7,292018,0.0-4.0-3.0,148287,44965.5176967593,44965.5282291667,28561.0,Array,rpms_task,Array,RPMShort_images/G0T1E04RPM11.png,5.0,,1
,survey-likert,8,350605,0.0-4.0-4.0,148287,44965.5176967593,44965.5282291667,58587.0,Array,rpms_task,Array,RPMShort_images/G0T1E05RPM15.png,8.0,,0
,survey-likert,9,387791,0.0-4.0-5.0,148287,44965.5176967593,44965.5282291667,37183.0,Array,rpms_task,Array,RPMShort_images/G0T1E06RPM18.png,4.0,,0
,survey-likert,10,417601,0.0-4.0-6.0,148287,44965.5176967593,44965.5282291667,29808.0,Array,rpms_task,Array,RPMShort_images/G0T1E07RPM21.png,1.0,,0
,survey-likert,11,493221,0.0-4.0-7.0,148287,44965.5176967593,44965.5282291667,75619.0,Array,rpms_task,Array,RPMShort_images/G0T1E08RPM23.png,6.0,,1
,survey-likert,12,535410,0.0-4.0-8.0,148287,44965.5176967593,44965.5282291667,42185.0,Array,rpms_task,Array,RPMShort_images/G0T1E09RPM25.png,7.0,,1
,survey-likert,13,690438,0.0-4.0-9.0,148287,44965.5176967593,44965.5282291667,155025.0,Array,rpms_task,Array,RPMShort_images/G0T1E10RPM30.png,4.0,,0
,survey-likert,14,845820,0.0-4.0-10.0,148287,44965.5176967593,44965.5282291667,155379.0,Array,rpms_task,Array,RPMShort_images/G0T1E11RPM31.png,2.0,,0
,survey-likert,15,906798,0.0-4.0-11.0,148287,44965.5176967593,44965.5282291667,60978.0,Array,rpms_task,Array,RPMShort_images/G0T1E12RPM35.png,7.0,,0
,html-keyboard-response,16,909760,0.0-5.0,148287,44965.5176967593,44965.5282291667,2959.0, ,rpms_debrief,,,,<p style='text-algin:left'>これで実験は終了です。お疲れ様でした。</p><p style='text-algin:left'>スペースキーを押したのち、画面を閉じてください。</p>,0
1.0,fullscreen,0,3065,0.0-0.0,65895519,44965.5181944444,44965.5283101852,,,,,,,,0
,survey-html-form,1,4935,0.0-1.0,65895519,44965.5181944444,44965.5283101852,1868.0,Array,rpms_instruction,,,,,0
,survey-html-form,2,13287,0.0-2.0,65895519,44965.5181944444,44965.5283101852,8352.0,Array,rpms_instruction,,,,,0
,survey-html-form,3,17847,0.0-3.0,65895519,44965.5181944444,44965.5283101852,4559.0,Array,rpms_instruction,,,,,0
,survey-likert,4,95889,0.0-4.0-0.0,65895519,44965.5181944444,44965.5283101852,78039.0,Array,rpms_task,Array,RPMShort_images/G0T1E01RPM01.png,5.0,,1
,survey-likert,5,201840,0.0-4.0-1.0,65895519,44965.5181944444,44965.5283101852,105946.0,Array,rpms_task,Array,RPMShort_images/G0T1E02RPM04.png,8.0,,0
,survey-likert,6,285503,0.0-4.0-2.0,65895519,44965.5181944444,44965.5283101852,83657.0,Array,rpms_task,Array,RPMShort_images/G0T1E03RPM08.png,4.0,,0
,survey-likert,7,301024,0.0-4.0-3.0,65895519,44965.5181944444,44965.5283101852,15517.0,Array,rpms_task,Array,RPMShort_images/G0T1E04RPM11.png,5.0,,1
,survey-likert,8,361607,0.0-4.0-4.0,65895519,44965.5181944444,44965.5283101852,60578.0,Array,rpms_task,Array,RPMShort_images/G0T1E05RPM15.png,2.0,,1
,survey-likert,9,401367,0.0-4.0-5.0,65895519,44965.5181944444,44965.5283101852,39755.0,Array,rpms_task,Array,RPMShort_images/G0T1E06RPM18.png,7.0,,1
,survey-likert,10,500568,0.0-4.0-6.0,65895519,44965.5181944444,44965.5283101852,99195.0,Array,rpms_task,Array,RPMShort_images/G0T1E07RPM21.png,4.0,,0
,survey-likert,11,588576,0.0-4.0-7.0,65895519,44965.5181944444,44965.5283101852,88002.0,Array,rpms_task,Array,RPMShort_images/G0T1E08RPM23.png,6.0,,1
,survey-likert,12,616864,0.0-4.0-8.0,65895519,44965.5181944444,44965.5283101852,28283.0,Array,rpms_task,Array,RPMShort_images/G0T1E09RPM25.png,7.0,,1
,survey-likert,13,705256,0.0-4.0-9.0,65895519,44965.5181944444,44965.5283101852,88386.0,Array,rpms_task,Array,RPMShort_images/G0T1E10RPM30.png,5.0,,1
,survey-likert,14,841601,0.0-4.0-10.0,65895519,44965.5181944444,44965.5283101852,136339.0,Array,rpms_task,Array,RPMShort_images/G0T1E11RPM31.png,4.0,,1
,survey-likert,15,871240,0.0-4.0-11.0,65895519,44965.5181944444,44965.5283101852,29634.0,Array,rpms_task,Array,RPMShort_images/G0T1E12RPM35.png,3.0,,1
,html-keyboard-response,16,874447,0.0-5.0,65895519,44965.5181944444,44965.5283101852,3201.0, ,rpms_debrief,,,,<p style='text-algin:left'>これで実験は終了です。お疲れ様でした。</p><p style='text-algin:left'>スペースキーを押したのち、画面を閉じてください。</p>,0
1.0,fullscreen,0,10508,0.0-0.0,3327831,44965.5118171296,44965.5286805556,,,,,,,,0
,survey-html-form,1,24137,0.0-1.0,3327831,44965.5118171296,44965.5286805556,13627.0,Array,rpms_instruction,,,,,0
,survey-html-form,2,44010,0.0-2.0,3327831,44965.5118171296,44965.5286805556,19871.0,Array,rpms_instruction,,,,,0
,survey-html-form,3,55817,0.0-3.0,3327831,44965.5118171296,44965.5286805556,11805.0,Array,rpms_instruction,,,,,0
,survey-likert,4,86393,0.0-4.0-0.0,3327831,44965.5118171296,44965.5286805556,30572.0,Array,rpms_task,Array,RPMShort_images/G0T1E01RPM01.png,5.0,,1
,survey-likert,5,109850,0.0-4.0-1.0,3327831,44965.5118171296,44965.5286805556,23453.0,Array,rpms_task,Array,RPMShort_images/G0T1E02RPM04.png,4.0,,1
,survey-likert,6,137066,0.0-4.0-2.0,3327831,44965.5118171296,44965.5286805556,27213.0,Array,rpms_task,Array,RPMShort_images/G0T1E03RPM08.png,1.0,,1
